flightTime,flightMode,stateShiranui3,stateBuzzer,pressure,temperature,altitude,descentCount,accelerationX,accelerationY,accelerationZ,gyroX,gyroY,gyroZ,yaw,pitch,roll,voltage33,voltage5,voltage12
0.10,1,0,0,102109.23,20.49,9.93,0,-0.57,0.86,6.68,1.10,0.61,-16.16,89.84507,-0.08563,0.044815,3.30,4.86,12.15
0.12,1,0,0,102131.72,20.50,8.08,0,-0.11,0.48,7.18,-0.12,7.50,-7.74,89.86092,-0.19824,0.16009,3.30,4.86,12.13
0.14,1,0,0,102100.63,20.50,10.64,0,-1.09,0.57,7.10,9.33,7.07,0.85,89.87362,-0.19941,0.234987,3.29,4.87,12.17
0.16,1,0,0,102118.77,20.50,9.14,0,-0.43,0.76,8.25,3.29,-2.07,0.67,89.93976,-0.04532,0.125465,3.30,4.87,12.17
0.19,1,0,0,102125.67,20.51,8.57,0,0.04,-0.54,8.17,-2.62,-9.51,2.20,90.06132,-0.01487,0.23195,3.30,4.87,12.17
0.21,1,0,1,102135.16,20.51,7.79,1,-0.37,0.33,7.51,7.62,-6.65,6.10,90.53642,-0.1754,0.373594,3.30,4.87,12.15
0.23,1,0,1,102123.95,20.50,8.72,0,-0.73,0.19,7.01,13.23,11.65,23.84,91.69258,-0.27292,0.78853,3.30,4.87,12.20
0.26,1,0,1,102144.67,20.50,7.01,1,-0.45,0.64,7.27,23.54,4.45,38.78,92.47964,-0.63096,0.639547,3.30,4.88,12.12
0.28,1,0,1,102123.95,20.50,8.72,0,-1.07,-0.10,5.92,-14.33,32.20,39.21,93.27746,-0.61336,0.972649,3.30,4.87,12.18
0.30,1,0,1,102123.06,20.50,8.79,0,-2.42,0.53,7.19,31.65,-5.30,40.73,93.96314,-0.60783,0.998974,3.30,4.86,12.15
0.32,1,0,1,102118.77,20.50,9.14,0,0.01,1.70,7.23,-2.80,1.16,34.21,94.18538,-0.71242,0.907621,3.30,4.86,12.18
0.34,1,0,1,102129.13,20.50,8.29,1,0.75,1.28,7.98,-12.87,14.02,10.67,94.26359,-0.81666,0.896761,3.30,4.86,12.18
0.36,1,0,1,102103.22,20.50,10.43,0,-0.38,-0.14,8.44,3.17,8.72,4.02,94.44326,-0.83899,0.994727,3.30,4.85,12.18
0.38,1,0,1,102118.77,20.50,9.14,0,-0.97,0.09,8.39,10.61,-2.07,9.45,94.46223,-0.90211,0.916469,3.30,4.87,12.17
0.40,1,0,1,102110.99,20.50,9.79,0,-1.05,0.52,7.37,-9.27,1.83,0.79,94.5185,-1.07852,0.835447,3.30,4.87,12.15
0.42,1,0,0,102103.22,20.50,10.43,0,-0.33,-0.88,7.97,-3.48,17.38,2.62,94.62468,-1.03735,0.884465,3.30,4.87,12.15
0.44,1,0,0,102098.88,20.51,10.79,0,-0.59,-0.14,8.35,8.54,-6.71,5.73,94.73442,-0.9381,0.883792,3.30,4.87,12.17
0.47,1,0,0,102092.85,20.50,11.28,0,-0.22,0.06,8.04,4.27,-4.82,3.78,94.91699,-0.94352,0.90498,3.30,4.86,12.18
0.49,1,0,0,102071.24,20.50,13.07,0,-0.34,0.12,8.51,6.16,-1.04,9.39,94.97695,-0.90423,0.891553,3.30,4.86,12.18
0.51,1,0,0,102075.55,20.49,12.71,0,-0.26,-0.01,8.19,3.29,-3.66,3.11,95.1338,-0.86928,0.945214,3.30,4.87,12.18
0.53,1,0,0,102061.76,20.50,13.85,0,-0.42,0.06,8.72,9.02,-5.91,8.23,95.25482,-0.82781,0.939463,3.30,4.86,12.18
0.55,1,0,0,102055.70,20.50,14.35,0,-0.33,0.01,8.28,3.78,-5.30,6.22,95.44016,-0.8089,0.95529,3.30,4.87,12.18
0.57,1,0,0,102060.02,20.51,14.00,0,-0.34,0.05,7.61,5.37,-4.02,9.51,95.61151,-0.74482,0.958867,3.30,4.87,12.18
0.59,1,0,0,102048.80,20.50,14.92,0,-0.39,-0.01,8.46,4.33,-8.29,8.78,95.85327,-0.69415,0.992963,3.30,4.86,12.13
0.61,1,0,0,102040.16,20.51,15.64,0,-0.35,0.06,8.00,7.01,-7.32,12.38,96.07187,-0.64094,1.002037,3.30,4.87,12.17
0.63,1,0,0,102039.28,20.51,15.71,0,-0.36,0.13,7.89,3.72,-8.54,11.16,96.31969,-0.57447,1.008217,3.30,4.87,12.05
0.65,1,0,0,102030.66,20.50,16.42,0,-0.29,-0.08,8.61,4.94,-7.38,12.56,96.7372,-0.48711,1.030456,3.30,4.87,12.18
0.68,1,0,0,102016.83,20.50,17.57,0,-0.44,0.08,7.51,3.78,-9.33,14.15,97.06327,-0.42866,1.044294,3.30,4.87,12.18
0.70,1,0,0,101992.64,20.51,18.92,0,-0.48,-0.01,7.96,4.21,-8.84,16.52,97.4041,-0.34647,1.033856,3.30,4.87,12.17
0.72,1,0,0,101997.81,20.49,19.14,0,-0.35,-0.00,7.77,2.38,-10.61,17.20,97.99143,-0.22392,1.086973,3.30,4.86,12.18
0.75,1,0,0,101989.20,20.50,19.42,0,-0.43,0.10,7.66,5.55,-11.65,19.82,98.37135,-0.15938,1.076243,3.30,4.87,12.15
0.77,1,0,0,101978.84,20.50,20.71,0,-0.40,0.04,8.82,1.95,-9.27,19.15,98.81369,-0.07523,1.105168,3.30,4.85,12.17
0.79,1,0,0,101981.43,20.50,22.21,0,-0.25,0.17,7.93,5.30,-11.59,22.32,99.29807,0.021536,1.121673,3.30,4.87,12.17
0.81,1,0,0,101968.48,20.50,21.56,0,-0.33,0.05,7.67,4.57,-12.44,24.39,99.7593,0.161736,1.160908,3.30,4.87,12.17
0.83,1,0,0,101942.56,20.50,22.85,0,-0.25,-0.20,6.40,8.11,-15.43,23.17,100.1804,0.232327,1.112232,3.30,4.86,12.17
0.85,1,0,0,101938.22,20.49,24.06,0,-0.58,-0.06,5.17,-2.80,-10.55,21.22,100.5712,0.306793,1.067073,3.30,4.87,12.17
0.87,1,0,0,101930.45,20.49,24.71,0,-0.36,-0.19,9.37,-0.61,-9.63,19.63,101.0331,0.353381,1.071975,3.30,4.86,12.18
0.89,1,0,0,101911.47,20.50,26.28,0,-0.51,0.13,10.35,2.56,-8.17,23.23,101.6443,0.368767,1.075837,3.30,4.87,12.18
0.91,1,0,0,101912.31,20.49,26.21,0,-0.60,0.18,5.31,0.91,-5.12,30.73,102.1046,0.431336,0.947433,3.30,4.86,12.18
0.93,1,0,0,101884.67,20.48,28.49,0,-0.51,-0.36,6.22,-9.15,-8.78,23.17,102.5283,0.521106,0.986231,3.30,4.87,12.23
0.95,1,0,0,101881.22,20.49,28.78,0,-0.19,0.06,8.61,6.95,-12.13,21.22,103.3188,0.534454,0.880887,3.30,4.87,12.17
0.98,1,0,0,101856.19,20.50,30.85,0,-0.40,-0.04,7.13,-4.27,-4.21,26.52,103.8889,0.52706,0.764221,3.30,4.87,12.18
1.00,1,0,0,101845.81,20.48,31.71,0,-0.51,-0.12,6.19,-9.02,-2.68,28.72,104.3824,0.529716,0.729466,3.29,4.86,12.17
1.02,1,0,0,101831.98,20.49,32.85,0,-0.29,0.11,7.11,-2.13,-4.27,24.82,104.9786,0.532042,0.679165,3.30,4.87,12.18
1.04,1,0,0,101811.25,20.48,34.57,0,-0.56,0.36,7.33,-5.61,-4.09,30.00,105.5693,0.541205,0.669034,3.30,4.87,12.17
1.06,1,0,0,101800.06,20.50,35.50,0,-0.47,0.06,6.99,0.37,-4.88,29.63,106.1429,0.510858,0.608022,3.30,4.87,12.17
1.08,1,0,0,101788.82,20.50,36.43,0,-0.29,0.04,6.16,-4.39,-0.91,28.84,106.6884,0.484181,0.599793,3.30,4.86,12.13
1.10,1,0,0,101764.63,20.49,38.43,0,-0.38,0.08,6.33,0.18,-1.46,27.38,107.3224,0.465151,0.639365,3.30,4.86,12.13
1.12,1,0,0,101759.44,20.49,38.86,0,-0.35,0.17,6.53,4.15,-2.13,31.77,107.9836,0.418028,0.641517,3.29,4.86,12.12
1.14,1,0,0,101731.81,20.48,41.15,0,-0.39,0.10,5.88,1.04,0.73,33.17,108.6196,0.381661,0.634755,3.30,4.86,12.15
1.16,1,0,0,101728.35,20.49,41.43,0,-0.42,-0.01,6.59,1.16,-0.18,31.89,109.6557,0.281646,0.687314,3.30,4.86,12.15
1.19,1,0,0,101710.22,20.49,42.94,0,-0.45,0.09,6.47,4.39,2.74,34.63,110.3625,0.216241,0.688731,3.30,4.86,12.15
1.21,1,0,1,101677.41,20.48,45.66,0,-0.41,-0.05,5.58,2.20,2.99,35.43,111.0816,0.146752,0.705278,3.30,4.86,12.02
1.23,1,0,1,101680.00,20.48,46.30,0,-0.32,-0.03,5.85,3.90,3.54,36.04,111.8066,0.074377,0.728598,3.30,4.87,12.04
1.25,1,0,1,101661.86,20.48,46.94,0,-0.41,-0.07,5.96,4.57,3.90,36.34,112.9579,-0.04475,0.764233,3.29,4.86,12.04
1.28,1,0,1,101642.85,20.48,48.52,0,-0.38,0.04,5.36,3.54,4.33,38.48,113.7258,-0.11857,0.777645,3.30,4.86,12.08
1.30,1,0,1,101640.27,20.49,48.73,0,-0.30,-0.00,5.63,3.41,4.21,38.48,114.5146,-0.19445,0.817059,3.30,4.87,12.17
1.32,1,0,1,101623.00,20.48,50.16,0,-0.35,0.13,5.36,3.96,3.96,39.57,115.3891,-0.28177,0.85457,3.30,4.87,12.18
1.34,1,0,1,101593.63,20.49,52.60,0,-0.24,0.12,5.63,4.33,5.37,43.84,116.2865,-0.35163,0.863476,3.30,4.87,12.20
1.36,1,0,1,101581.55,20.48,53.60,0,-0.30,-0.01,4.98,2.93,4.33,44.94,117.1574,-0.41824,0.879333,3.30,4.87,12.17
1.38,1,0,1,101566.00,20.48,54.89,0,-0.20,-0.04,5.80,5.06,5.55,43.60,118.0436,-0.46403,0.879672,3.30,4.86,12.18
1.40,1,0,1,101567.72,20.49,54.96,0,-0.16,-0.07,5.11,3.78,4.27,44.33,118.8849,-0.50296,0.885697,3.30,4.86,12.18
1.42,1,0,0,101559.95,20.49,55.39,0,-0.26,-0.13,5.59,4.02,2.87,42.13,120.3237,-0.57351,0.908661,3.30,4.87,12.18
1.45,1,0,0,101546.99,20.49,57.33,0,-0.14,0.12,5.01,3.29,2.26,48.05,121.3161,-0.61142,0.897599,3.30,4.86,12.18
1.47,1,0,0,101523.67,20.49,58.40,0,-0.22,-0.01,4.83,1.65,2.50,49.63,122.3286,-0.60968,0.89145,3.30,4.87,12.18
1.49,1,0,0,101509.00,20.48,59.62,0,-0.22,0.02,4.54,1.65,-1.95,50.73,123.3714,-0.61119,0.858662,3.30,4.87,12.18
1.51,1,0,0,101498.64,20.48,60.48,0,-0.11,-0.05,2.50,-0.06,-0.18,52.13,124.4069,-0.52305,0.835684,3.30,4.87,12.18
1.53,1,0,0,101490.88,20.48,61.34,0,0.02,-0.04,2.08,0.67,-4.76,51.83,125.4701,-0.55137,0.859582,3.30,4.87,12.18
1.55,1,0,0,101448.55,20.49,64.64,0,-0.15,0.08,1.70,0.24,-0.18,53.23,126.5633,-0.5488,0.831368,3.30,4.87,12.17
1.57,1,0,0,101451.14,20.48,64.42,0,-0.08,0.02,1.57,-1.59,-2.80,54.70,127.6769,-0.49225,0.780706,3.30,4.87,12.13
1.59,1,0,0,101417.45,20.49,67.22,0,-0.05,-0.03,1.52,-1.52,-5.37,55.73,128.894,-0.47452,0.81257,3.30,4.86,12.18
1.61,1,0,0,101394.14,20.48,69.16,0,-0.15,0.25,1.21,-1.89,-2.50,60.91,130.0717,-0.36541,0.809155,3.30,4.86,12.18
1.63,1,0,0,101365.64,20.49,71.52,0,0.08,0.03,1.15,-1.10,-4.51,58.90,131.1931,-0.34473,0.812977,3.30,4.86,12.18
1.65,1,0,0,101344.92,20.49,73.24,0,-0.14,0.10,1.10,-2.56,-4.63,56.16,132.3626,-0.31933,0.834705,3.30,4.87,12.18
1.67,1,0,0,101323.34,20.50,75.04,0,-0.06,0.12,0.98,-2.68,-3.05,58.54,134.1184,-0.30187,0.793735,3.30,4.86,12.18
1.70,1,0,0,101281.03,20.48,78.55,0,-0.05,-0.00,0.74,-1.16,-3.72,58.60,135.3179,-0.2951,0.814201,3.30,4.87,12.04
1.72,1,0,0,101277.56,20.48,78.84,0,-0.06,0.06,0.61,-1.52,-2.68,60.06,137.0735,-0.31109,0.820861,3.30,4.87,12.07
1.75,1,0,0,101247.35,20.48,81.35,0,-0.15,0.02,0.53,-0.30,-2.01,58.60,138.2776,-0.21337,0.833828,3.30,4.86,12.05
1.77,1,0,0,101229.22,20.48,82.86,0,0.03,0.02,0.43,-0.30,-3.41,60.24,139.4811,-0.21413,0.840371,3.30,4.87,12.04
1.79,1,0,0,101215.39,20.49,84.01,0,-0.05,0.04,0.24,-2.44,-2.07,60.24,140.6697,-0.19342,0.882003,3.30,4.87,12.02
1.81,1,0,0,101180.88,20.48,86.88,0,-0.04,0.14,0.26,-0.79,-1.59,59.51,141.8509,-0.18369,0.894298,3.30,4.87,12.12
1.83,1,0,0,101151.50,20.48,89.33,0,-0.24,0.20,0.13,-2.13,-2.80,59.15,143.078,-0.17583,0.864084,3.30,4.87,12.13
1.85,1,0,0,101146.32,20.48,89.76,0,-0.07,-0.06,0.19,-0.12,-2.32,61.40,144.2368,-0.13813,0.913758,3.30,4.87,12.15
1.87,1,0,0,101125.59,20.48,91.48,0,-0.01,0.17,-0.11,-0.06,-2.26,58.05,145.4432,-0.05622,0.94327,3.30,4.87,12.15
1.89,1,0,0,101096.22,20.49,93.93,0,0.09,0.05,-0.05,0.37,-2.13,60.37,146.6301,-0.08315,0.946534,3.30,4.87,12.15
1.91,1,0,0,101075.50,20.49,95.65,0,-0.17,0.03,-0.07,-0.67,0.00,59.39,147.7856,-0.02197,0.998926,3.30,4.87,12.12
1.93,1,0,0,101039.23,20.49,98.67,0,0.06,0.10,-0.08,1.04,-1.77,57.87,149.4736,-0.09957,0.981165,3.30,4.87,12.12
1.96,1,0,0,101027.16,20.48,99.68,0,-0.09,-0.05,-0.44,0.43,2.68,56.22,150.6495,-0.11799,0.973609,3.30,4.87,11.94
1.98,1,0,0,100996.08,20.48,102.27,0,-0.10,-0.02,-0.22,-0.37,-0.85,58.84,151.8048,-0.06428,1.012148,3.30,4.87,11.89
2.00,1,0,0,100992.61,20.49,102.56,0,0.08,0.09,-0.20,0.00,-0.37,57.80,152.9123,0.009642,1.044675,3.30,4.87,11.89
2.02,1,0,0,100967.59,20.47,105.94,0,0.13,-0.06,-0.15,5.00,-1.04,55.43,154.0791,-0.02511,1.087012,3.30,4.86,12.17
2.04,1,0,0,100932.20,20.47,107.59,0,-0.08,0.09,-0.17,0.61,2.62,58.35,155.2584,-0.0197,1.162061,3.30,4.86,12.13
2.06,1,0,0,100917.50,20.48,109.47,0,-0.00,0.22,-0.35,2.74,1.77,59.02,156.4222,-0.01941,1.213987,3.30,4.87,12.20
2.08,1,0,0,100905.41,20.48,109.83,0,-0.08,0.05,-0.04,2.62,-1.59,58.35,157.545,0.002192,1.164393,3.30,4.87,12.17
2.10,1,0,0,100888.98,20.49,111.41,0,0.01,-0.09,-0.18,-0.30,0.73,56.04,158.7291,0.022499,1.217001,3.30,4.87,12.17
2.12,2,0,0,100873.45,20.49,112.49,0,0.03,0.07,-0.56,0.79,1.89,59.21,159.9079,0.033358,1.268232,3.30,4.87,12.18
2.14,2,0,0,100848.43,20.48,114.80,0,-0.02,0.04,-0.60,0.67,0.12,59.02,161.0876,0.099106,1.322035,3.30,4.86,12.17
2.16,2,0,0,100834.59,20.49,115.73,0,0.09,0.09,-0.39,1.89,-0.85,59.09,162.8531,0.153464,1.393293,3.30,4.87,12.18
2.19,2,0,0,100811.28,20.49,117.68,0,0.01,0.14,-0.30,0.30,-0.49,58.96,164.0216,0.235129,1.426714,3.30,4.87,12.18
2.21,2,0,1,100773.31,20.48,120.85,0,0.03,0.01,-0.29,0.85,-1.52,58.54,165.188,0.321519,1.467065,3.30,4.88,12.18
2.23,2,0,1,100762.06,20.49,121.79,0,0.05,0.03,-0.33,1.46,-2.13,58.48,166.9187,0.371891,1.512573,3.30,4.86,12.18
2.26,2,0,1,100713.75,20.47,125.82,0,-0.00,0.11,-0.43,-0.98,-0.18,57.80,168.053,0.449881,1.510347,3.30,4.86,12.13
2.28,2,0,1,100718.91,20.48,125.39,0,0.02,-0.02,-0.45,-0.12,-0.12,56.71,169.1752,0.527512,1.455428,3.30,4.87,12.13
2.30,2,0,1,100695.60,20.48,127.34,0,0.02,-0.04,-0.44,-2.07,-0.85,56.04,170.3149,0.559477,1.490928,3.30,4.86,12.18
2.32,2,0,1,100674.88,20.48,129.07,0,-0.03,0.05,-0.37,0.18,-1.77,57.20,171.4391,0.625781,1.520236,3.29,4.86,12.17
2.34,2,0,1,100641.20,20.48,131.88,0,0.03,0.06,-0.36,-0.18,-1.65,56.40,172.5461,0.713457,1.529574,3.30,4.87,12.18
2.36,2,0,1,100629.96,20.49,132.82,0,0.07,0.06,-0.29,-1.10,-2.44,55.55,173.6603,0.819376,1.493457,3.30,4.87,12.17
2.38,2,0,1,100594.59,20.48,135.78,0,-0.00,-0.02,-0.32,-0.55,-3.23,55.79,174.7779,0.914119,1.505397,3.30,4.87,12.18
2.40,2,0,1,100591.11,20.49,136.07,0,0.09,0.10,-0.37,-0.73,-3.48,56.16,175.8991,0.990559,1.538961,3.30,4.87,12.18
2.42,2,0,0,100562.61,20.49,138.45,0,0.01,0.06,-0.35,0.67,-3.41,56.40,177.5608,1.156887,1.521579,3.30,4.87,12.18
2.45,2,0,0,100538.45,20.50,140.47,0,0.02,-0.01,-0.36,-0.43,-3.54,55.61,178.6588,1.25168,1.527191,3.30,4.87,12.18
2.47,2,0,0,100512.55,20.50,142.64,0,0.05,0.06,-0.35,-0.79,-3.54,55.24,179.7441,1.341048,1.535591,3.30,4.87,12.18
2.49,2,0,0,100497.00,20.50,143.94,0,0.02,0.04,-0.40,-0.73,-3.54,54.63,-179.173,1.451957,1.527634,3.30,4.87,12.18
2.51,2,0,0,100465.06,20.50,146.61,0,0.06,0.03,-0.31,-0.67,-4.15,54.51,-178.093,1.548736,1.534608,3.30,4.86,12.18
2.53,2,0,0,100459.88,20.50,147.04,0,0.03,0.05,-0.29,-0.37,-4.09,54.39,-177.025,1.630577,1.544799,3.30,4.86,12.17
2.55,2,0,0,100421.89,20.50,150.22,0,0.01,0.05,-0.33,-0.37,-3.48,53.84,-175.98,1.729697,1.534551,3.30,4.87,12.20
2.57,2,0,0,100408.94,20.50,151.31,0,0.06,0.05,-0.32,-1.04,-3.48,52.62,-174.941,1.788774,1.540893,3.30,4.87,12.18
2.59,2,0,0,100386.48,20.49,153.19,0,-0.02,0.04,-0.27,-0.85,-3.41,52.44,-173.89,1.810747,1.529822,3.30,4.87,12.17
2.61,2,0,0,100375.27,20.50,154.12,0,-0.04,0.00,-0.34,-1.04,-2.74,52.87,-172.855,1.899597,1.527307,3.30,4.86,12.15
2.63,2,0,0,100345.91,20.50,156.58,0,0.04,0.06,-0.32,-0.61,-3.17,52.20,-171.328,2.005529,1.525308,3.30,4.86,12.17
2.66,2,0,0,100333.83,20.50,157.60,0,0.00,0.05,-0.37,-1.10,-2.74,51.34,-170.32,2.071548,1.518898,3.30,4.87,12.17
2.68,2,0,0,100293.25,20.49,161.00,0,-0.00,0.04,-0.39,-1.34,-1.95,50.85,-169.328,2.123973,1.509363,3.30,4.87,12.15
2.70,2,0,0,100269.94,20.49,162.95,0,-0.01,0.07,-0.44,-1.89,-1.52,50.00,-168.334,2.20675,1.487614,3.30,4.87,11.94
2.72,2,0,0,100253.54,20.50,164.32,0,0.04,0.05,-0.31,-1.83,-2.38,50.12,-166.848,2.330725,1.420742,3.29,4.87,11.94
2.75,2,0,0,100231.95,20.50,166.13,0,0.02,0.00,-0.35,-2.26,-1.28,49.82,-165.863,2.374063,1.404631,3.30,4.87,11.78
2.77,2,0,0,100221.59,20.50,167.00,0,-0.02,0.03,-0.39,-2.13,-0.79,49.63,-164.894,2.447285,1.374158,3.30,4.87,11.84
2.79,2,0,0,100200.01,20.49,168.81,0,0.03,0.03,-0.38,-1.89,-1.22,48.84,-163.916,2.510322,1.359121,3.30,4.87,11.79
2.81,2,0,0,100189.66,20.49,170.77,0,0.02,0.06,-0.39,-1.16,-1.28,49.33,-162.938,2.577467,1.333698,3.30,4.86,11.89
2.83,2,0,0,100157.71,20.50,172.36,0,0.02,0.03,-0.39,-1.34,-0.85,49.27,-161.967,2.627683,1.303648,3.30,4.86,11.97
2.85,2,0,0,100143.03,20.49,173.59,0,0.04,0.10,-0.38,-2.56,-0.24,48.96,-160.993,2.650312,1.289582,3.30,4.87,12.02
2.87,2,0,0,100122.28,20.51,175.33,0,-0.03,0.06,-0.39,-1.59,0.30,49.02,-160.016,2.723759,1.254702,3.30,4.87,12.00
2.89,2,0,0,100118.00,20.50,175.69,0,0.04,0.01,-0.35,-0.49,-0.67,49.15,-159.031,2.784707,1.222373,3.30,4.87,12.00
2.91,2,0,0,100087.78,20.50,178.23,0,0.02,0.02,-0.42,-1.04,0.06,49.57,-158.041,2.835611,1.206711,3.30,4.87,12.08
2.93,2,0,0,100061.88,20.50,180.40,0,0.03,0.08,-0.39,-0.55,-0.24,49.88,-156.534,2.909885,1.179599,3.30,4.86,12.07
2.96,2,0,0,100046.34,20.50,181.71,0,0.00,0.03,-0.40,-0.37,0.24,50.55,-155.526,2.965853,1.154272,3.30,4.87,12.07
2.98,2,0,0,100037.67,20.51,182.43,0,0.08,0.06,-0.41,0.12,0.49,50.67,-154.519,3.038344,1.124323,3.30,4.87,12.05
3.00,2,0,0,100004.91,20.50,185.18,0,0.05,0.02,-0.39,0.55,-0.79,50.67,-153.524,3.11567,1.081357,3.30,4.86,11.89
3.02,2,0,0,99998.00,20.49,185.76,0,0.06,0.01,-0.33,-0.06,-1.16,50.06,-152.507,3.16632,1.059545,3.30,4.86,11.91
3.04,2,0,0,99967.78,20.50,188.30,0,0.07,0.11,-0.36,-0.12,0.00,51.22,-151.493,3.230994,0.990766,3.30,4.85,12.10
3.06,2,0,0,99958.29,20.50,189.10,0,0.03,-0.01,-0.40,-1.52,0.12,50.98,-150.482,3.291362,0.938699,3.30,4.86,12.07
3.08,2,0,0,99929.80,20.50,191.50,0,0.05,0.01,-0.43,-0.61,0.30,50.79,-149.494,3.358918,0.862346,3.30,4.87,12.12
3.10,2,0,0,99916.85,20.50,192.58,0,0.04,-0.02,-0.40,-1.52,-0.43,49.70,-148.474,3.416998,0.793452,3.30,4.86,12.15
3.12,2,0,0,99895.27,20.50,194.40,0,0.04,0.01,-0.37,-2.01,0.30,51.34,-147.451,3.479259,0.698767,3.30,4.87,11.99
3.14,2,0,0,99882.33,20.50,195.48,0,0.02,-0.02,-0.34,-2.50,-0.18,51.40,-145.945,3.568165,0.576918,3.30,4.86,12.18
3.17,2,0,0,99875.41,20.50,196.07,0,0.09,0.02,-0.37,-2.93,-0.12,50.67,-144.935,3.617973,0.485124,3.30,4.87,12.17
3.19,2,0,0,99843.48,20.50,198.75,0,0.04,-0.01,-0.40,-2.74,0.73,50.79,-143.918,3.664504,0.366071,3.30,4.87,12.17
3.21,2,0,1,99829.63,20.51,199.92,0,0.08,-0.06,-0.37,-3.60,0.49,51.10,-142.875,3.717948,0.25566,3.30,4.87,12.17
3.23,2,0,1,99810.67,20.50,201.51,0,0.02,0.00,-0.39,-4.63,0.00,52.68,-141.379,3.782336,0.110774,3.30,4.87,12.18
3.26,2,0,1,99796.86,20.50,203.11,0,0.02,0.02,-0.44,-4.51,0.61,50.43,-140.378,3.834492,-0.01568,3.30,4.85,12.18
3.28,2,0,1,99774.42,20.50,204.56,0,0.07,-0.03,-0.34,-4.82,-0.49,50.55,-139.368,3.886939,-0.13712,3.30,4.87,12.12
3.30,2,0,1,99762.34,20.49,206.67,0,0.07,-0.01,-0.33,-4.88,-0.61,51.10,-138.329,3.924049,-0.25142,3.30,4.86,12.18
3.32,2,0,1,99739.03,20.49,207.54,0,0.04,0.05,-0.39,-6.46,0.18,52.74,-137.333,3.962032,-0.39145,3.30,4.87,12.18
3.34,2,0,1,99720.03,20.50,209.14,0,0.05,-0.02,-0.36,-6.04,0.30,50.37,-136.321,3.999432,-0.53056,3.30,4.86,12.15
3.36,2,0,1,99694.97,20.51,211.25,0,0.07,-0.02,-0.32,-5.85,0.12,51.22,-135.298,4.032751,-0.64691,3.30,4.87,12.18
3.38,2,0,1,99694.14,20.50,211.75,0,0.04,0.05,-0.41,-6.28,0.00,52.01,-134.278,4.052854,-0.76875,3.30,4.87,12.18
3.40,2,0,1,99669.97,20.50,213.35,0,-0.01,0.03,-0.46,-6.52,1.22,51.77,-133.285,4.08162,-0.90199,3.30,4.87,12.23
3.42,2,0,0,99652.70,20.50,214.81,0,0.06,0.03,-0.35,-7.07,0.37,50.55,-131.756,4.119498,-1.10927,3.30,4.87,12.18
3.45,2,0,0,99643.17,20.51,215.61,0,0.02,0.01,-0.42,-6.28,0.49,51.71,-130.745,4.134648,-1.22434,3.30,4.87,12.15
3.47,2,0,0,99615.59,20.50,217.93,0,0.04,0.07,-0.36,-6.59,0.49,51.52,-129.761,4.158043,-1.37105,3.30,4.87,12.20
3.49,2,0,0,99597.41,20.51,219.47,0,0.07,0.00,-0.35,-6.89,0.18,50.00,-128.772,4.166582,-1.49526,3.30,4.87,12.17
3.51,2,0,0,99587.96,20.50,220.26,0,0.08,0.05,-0.28,-6.52,1.22,50.37,-127.757,4.171631,-1.60647,3.30,4.85,12.10
3.53,2,0,0,99572.42,20.50,221.57,0,0.08,0.09,-0.39,-5.79,0.98,51.65,-126.782,4.180815,-1.72063,3.30,4.87,11.99
3.55,2,0,0,99559.48,20.50,222.66,0,0.06,0.08,-0.38,-6.34,0.49,49.76,-125.801,4.17366,-1.9019,3.30,4.86,12.13
3.57,2,0,0,99533.58,20.50,224.85,0,-0.01,-0.03,-0.36,-7.26,0.67,49.51,-124.81,4.17579,-2.02631,3.30,4.87,12.10
3.59,2,0,0,99517.19,20.50,226.23,0,0.06,0.05,-0.32,-6.34,0.98,50.55,-123.836,4.173776,-2.15855,3.30,4.86,12.18
3.61,2,0,0,99494.73,20.50,228.12,0,0.04,0.02,-0.39,-5.67,1.40,49.51,-122.863,4.185938,-2.27436,3.30,4.86,12.17
3.63,2,0,0,99497.33,20.50,227.90,0,0.09,0.05,-0.32,-5.24,-0.30,49.63,-121.898,4.194801,-2.40802,3.30,4.87,12.18
3.65,2,0,0,99467.98,20.50,230.38,0,0.06,0.02,-0.33,-5.91,-0.06,49.21,-120.452,4.195496,-2.62772,3.30,4.87,12.17
3.68,2,0,0,99450.72,20.50,231.83,0,0.01,-0.00,-0.35,-5.43,0.06,48.96,-119.5,4.198756,-2.72443,3.30,4.87,12.18
3.70,2,0,0,99432.59,20.50,233.58,0,0.12,0.11,-0.33,-4.57,-0.49,48.66,-118.569,4.205236,-2.83467,3.30,4.87,12.20
3.72,2,0,0,99415.34,20.49,234.82,0,0.05,0.04,-0.31,-4.57,-0.43,47.56,-117.63,4.203636,-2.95462,3.30,4.87,12.12
3.74,2,0,0,99409.28,20.50,236.21,0,0.04,0.03,-0.33,-4.82,0.18,47.93,-116.212,4.183351,-3.07931,3.30,4.86,12.12
3.77,2,0,0,99381.68,20.49,237.66,0,0.06,0.10,-0.28,-3.96,0.24,48.29,-115.273,4.178355,-3.18513,3.30,4.87,12.20
3.79,2,0,0,99365.27,20.50,239.27,0,0.05,0.05,-0.33,-4.27,0.06,47.99,-114.34,4.175883,-3.279,3.30,4.86,11.55
3.81,2,0,0,99351.46,20.50,240.21,0,0.10,0.07,-0.30,-3.60,-0.43,47.68,-113.42,4.165408,-3.39192,3.30,4.87,11.84
3.83,2,0,0,99336.78,20.50,241.67,0,0.07,0.04,-0.32,-4.57,0.43,47.07,-112.488,4.141324,-3.47493,3.30,4.87,12.15
3.85,2,0,0,99317.75,20.51,243.06,0,0.02,0.10,-0.32,-4.57,0.24,47.68,-111.565,4.12196,-3.57848,3.30,4.87,12.10
3.87,2,0,0,99304.80,20.51,245.03,0,0.02,0.06,-0.36,-4.57,0.85,47.26,-110.64,4.091384,-3.71953,3.30,4.87,12.10
3.89,2,0,0,99293.59,20.51,245.10,0,0.00,-0.02,-0.34,-3.60,0.12,46.77,-109.722,4.073676,-3.80973,3.30,4.87,12.00
3.91,2,0,0,99270.28,20.51,247.07,0,0.05,0.08,-0.29,-4.27,0.00,47.07,-108.808,4.054044,-3.92076,3.30,4.86,12.07
3.93,2,0,0,99258.19,20.51,248.09,0,0.05,0.03,-0.33,-3.78,0.49,46.71,-107.909,4.026946,-4.04566,3.30,4.87,12.13
3.95,2,0,0,99244.39,20.51,249.26,0,0.05,0.00,-0.36,-3.90,0.73,45.85,-106.532,3.990494,-4.23786,3.30,4.87,12.10
3.98,2,0,0,99223.67,20.51,251.01,0,0.03,0.02,-0.33,-4.63,0.30,46.95,-105.621,3.96391,-4.35551,3.30,4.87,12.15
4.00,2,0,0,99204.72,20.50,252.61,0,0.00,0.04,-0.33,-4.33,0.43,46.71,-104.731,3.934505,-4.47792,3.30,4.87,12.07
4.02,2,0,0,99175.39,20.50,255.09,0,0.05,0.02,-0.32,-4.51,0.61,45.61,-103.817,3.897121,-4.60026,3.30,4.86,11.86
4.04,2,0,0,99171.89,20.51,255.39,0,0.04,0.01,-0.31,-3.78,0.79,46.71,-102.903,3.852866,-4.74065,3.30,4.87,11.91
4.06,2,0,0,99152.03,20.51,257.06,0,0.02,-0.00,-0.32,-4.63,0.67,46.65,-102.008,3.803529,-4.87804,3.30,4.86,11.94
4.08,2,0,0,99136.48,20.51,258.38,0,0.03,-0.00,-0.31,-4.76,1.28,45.73,-101.121,3.759634,-5.0054,3.30,4.87,11.99
4.10,2,0,0,99115.78,20.51,260.13,0,0.02,0.03,-0.33,-4.82,1.10,45.55,-100.221,3.694352,-5.15768,3.30,4.87,11.94
4.12,2,0,0,99109.75,20.51,260.64,0,-0.00,0.00,-0.34,-5.30,1.40,45.85,-99.3445,3.644578,-5.27384,3.30,4.86,11.94
4.14,2,0,0,99086.44,20.51,262.61,0,0.01,0.05,-0.31,-5.18,1.59,45.18,-98.4654,3.59163,-5.40789,3.30,4.86,11.97
4.16,2,0,0,99077.79,20.52,263.35,0,0.01,0.02,-0.30,-4.76,0.91,45.06,-97.5985,3.509847,-5.55392,3.30,4.87,12.12
4.18,2,0,0,99065.73,20.51,264.37,0,0.01,-0.05,-0.28,-4.63,1.77,44.02,-96.2755,3.384884,-5.76856,3.29,4.87,12.10
4.21,2,0,1,99040.69,20.51,266.49,0,0.02,-0.02,-0.32,-4.88,2.38,45.00,-95.3932,3.287742,-5.91762,3.30,4.87,11.94
4.23,2,0,1,99038.09,20.51,267.36,0,-0.01,0.01,-0.34,-5.24,2.87,44.94,-94.1166,3.166142,-6.13555,3.30,4.87,11.94
4.26,2,0,1,99013.94,20.51,268.75,0,0.02,0.01,-0.30,-6.10,2.56,43.78,-93.2632,3.061589,-6.28442,3.30,4.86,12.02
4.28,2,0,1,99001.84,20.51,270.21,0,0.00,0.00,-0.32,-5.67,3.35,43.60,-92.4164,2.962628,-6.42608,3.30,4.87,11.91
4.30,2,0,1,98986.31,20.51,271.09,0,0.01,0.02,-0.30,-5.85,3.66,43.54,-91.5707,2.868034,-6.54567,3.30,4.85,11.94
4.32,2,0,1,98971.69,20.50,272.55,0,0.01,0.06,-0.31,-6.28,4.21,43.84,-90.7352,2.745455,-6.69893,3.30,4.87,12.08
4.34,2,0,1,98955.24,20.51,273.72,0,0.00,-0.06,-0.28,-6.22,3.60,42.56,-89.8889,2.611239,-6.85407,3.30,4.87,12.05
4.36,2,0,1,98942.30,20.51,275.48,0,-0.01,-0.01,-0.33,-6.52,4.51,43.17,-89.0478,2.486186,-6.99811,3.30,4.87,12.08
4.38,2,0,1,98929.35,20.51,275.91,0,0.01,0.01,-0.27,-6.22,4.82,43.23,-88.22,2.366571,-7.13568,3.30,4.87,12.05
4.40,2,0,1,98910.38,20.51,277.52,0,0.03,0.00,-0.28,-6.10,4.63,42.68,-87.3843,2.242361,-7.26303,3.30,4.87,12.07
4.42,2,0,0,98900.87,20.51,278.33,0,0.03,0.02,-0.29,-5.67,5.24,43.17,-86.5422,2.082246,-7.41091,3.30,4.87,12.12
4.44,2,0,0,98887.92,20.51,280.30,0,-0.02,-0.01,-0.30,-6.40,5.37,42.80,-85.3167,1.887492,-7.59556,3.30,4.87,12.10
4.47,2,0,0,98871.53,20.51,280.81,0,0.03,0.04,-0.32,-6.10,5.85,42.38,-84.5119,1.767268,-7.70455,3.30,4.87,12.20
4.49,2,0,0,98866.30,20.52,281.26,0,0.04,0.03,-0.24,-5.49,5.18,41.83,-83.7127,1.635306,-7.826,3.29,4.87,12.17
4.51,2,0,0,98846.50,20.51,282.94,0,0.05,0.02,-0.31,-6.10,5.73,41.52,-82.8963,1.477549,-7.9484,3.30,4.87,12.20
4.53,2,0,0,98836.14,20.51,283.82,0,0.01,0.01,-0.29,-5.12,6.16,41.89,-82.0998,1.344795,-8.05011,3.30,4.87,12.18
4.55,2,0,0,98820.61,20.51,285.13,0,0.06,0.02,-0.24,-5.24,5.98,41.46,-81.3177,1.205065,-8.1697,3.30,4.86,12.18
4.57,2,0,0,98799.05,20.51,286.96,0,0.05,0.01,-0.29,-6.16,5.91,40.67,-80.5191,1.056155,-8.29076,3.29,4.88,12.20
4.59,2,0,0,98797.30,20.51,287.11,0,0.02,0.05,-0.32,-6.40,6.16,41.46,-79.724,0.900848,-8.39865,3.29,4.87,12.18
4.61,2,0,0,98786.03,20.52,288.07,0,0.03,0.03,-0.29,-5.18,6.65,41.22,-78.927,0.749574,-8.50634,3.30,4.87,12.18
4.63,2,0,0,98778.33,20.51,288.72,0,0.05,0.00,-0.27,-5.30,6.04,41.34,-78.1274,0.592162,-8.60869,3.30,4.87,12.18
4.65,2,0,0,98763.64,20.51,289.96,0,0.04,0.02,-0.32,-4.82,6.22,41.40,-77.3429,0.453524,-8.67945,3.30,4.87,12.13
4.67,2,0,0,98745.52,20.51,291.50,0,0.05,0.06,-0.25,-4.76,6.16,40.98,-76.1756,0.209921,-8.82887,3.30,4.87,12.17
4.70,2,0,0,98728.25,20.52,292.97,0,0.04,-0.01,-0.28,-4.70,6.22,40.24,-75.396,0.077031,-8.86933,3.30,4.86,12.07
4.72,2,0,0,98714.45,20.51,294.14,0,0.07,0.08,-0.24,-3.90,5.49,40.61,-74.6214,-0.08685,-8.96383,3.29,4.86,12.05
4.74,2,0,0,98706.69,20.51,294.80,0,0.03,-0.01,-0.28,-4.39,5.61,39.94,-73.8404,-0.23957,-9.04362,3.31,4.86,12.00
4.76,2,0,0,98692.00,20.52,296.04,0,0.04,0.04,-0.28,-4.15,5.73,40.61,-72.6684,-0.477,-9.17384,3.30,4.87,11.91
4.79,2,0,0,98682.53,20.51,296.85,0,0.05,0.05,-0.34,-5.06,6.10,40.73,-71.8808,-0.65354,-9.25948,3.30,4.87,11.99
4.81,2,0,0,98664.41,20.51,298.39,0,0.02,0.01,-0.30,-4.09,5.61,40.49,-71.126,-0.80271,-9.33309,3.30,4.87,12.07
4.83,2,0,0,98651.40,20.52,299.49,0,0.05,0.01,-0.23,-3.96,5.12,39.33,-70.3645,-0.94961,-9.40548,3.30,4.87,12.17
4.85,2,0,0,98640.22,20.52,300.44,0,0.05,0.03,-0.25,-4.33,4.94,39.76,-69.5934,-1.09602,-9.46026,3.30,4.87,12.07
4.87,2,0,0,98622.09,20.52,301.98,0,0.09,0.03,-0.27,-3.72,5.43,40.37,-68.8039,-1.29108,-9.53484,3.30,4.87,12.13
4.89,2,0,0,98618.66,20.51,303.59,0,0.00,0.04,-0.26,-4.02,5.24,40.12,-68.0638,-1.44702,-9.60094,3.30,4.87,12.12
4.91,2,0,0,98600.53,20.51,303.81,0,0.05,0.00,-0.26,-3.54,4.88,38.48,-67.3108,-1.60113,-9.66971,3.30,4.86,12.05
4.93,2,0,0,98586.67,20.52,305.21,0,0.05,0.03,-0.28,-4.27,4.70,39.27,-66.5441,-1.77266,-9.73036,3.30,4.87,12.13
4.95,2,0,0,98577.23,20.51,305.79,0,0.03,0.05,-0.26,-3.78,5.49,39.76,-65.7793,-1.94625,-9.79421,3.30,4.87,12.15
4.97,2,0,0,98565.96,20.52,306.75,0,0.02,0.01,-0.26,-3.54,4.27,39.33,-65.0282,-2.1299,-9.85579,3.29,4.87,12.13
4.99,2,0,0,98547.02,20.52,308.36,0,0.01,-0.00,-0.27,-3.48,4.76,38.48,-63.8989,-2.39258,-9.95332,3.30,4.87,12.13
5.02,2,0,0,98527.97,20.53,309.98,0,0.03,0.01,-0.26,-4.15,4.76,38.96,-63.1532,-2.54829,-10.0084,3.30,4.87,12.13
5.04,2,0,0,98515.10,20.51,311.07,0,0.06,0.02,-0.26,-4.09,4.39,39.02,-62.4131,-2.71954,-10.0546,3.30,4.87,11.99
5.06,2,0,0,98509.00,20.52,311.59,0,0.03,0.01,-0.23,-2.80,4.45,38.29,-61.6662,-2.88418,-10.0998,3.30,4.87,11.89
5.08,2,0,0,98499.56,20.51,312.39,0,0.04,0.03,-0.23,-3.35,4.45,38.90,-60.9413,-3.05665,-10.1499,3.30,4.86,11.89
5.10,2,0,0,98484.03,20.51,313.71,0,0.05,0.01,-0.28,-3.60,5.12,37.80,-60.1809,-3.25087,-10.1963,3.30,4.87,11.94
5.12,2,0,0,98481.45,20.51,313.93,0,0.02,0.02,-0.27,-3.48,4.94,39.09,-59.4617,-3.41198,-10.2449,3.30,4.87,12.13
5.14,2,0,0,98468.50,20.51,315.04,0,0.06,-0.01,-0.22,-4.09,4.51,37.74,-58.7245,-3.61649,-10.2946,3.30,4.87,12.15
5.16,2,0,0,98451.16,20.53,316.51,0,-0.01,-0.02,-0.27,-4.27,5.12,37.68,-58.0003,-3.79453,-10.3464,3.29,4.87,12.12
5.18,2,0,0,98447.79,20.51,316.80,0,0.04,-0.00,-0.25,-4.45,4.63,37.74,-56.9341,-4.07543,-10.4317,3.30,4.87,12.12
5.21,2,0,1,98427.93,20.52,318.49,0,0.02,-0.01,-0.24,-5.06,4.63,36.83,-56.2121,-4.26962,-10.4801,3.30,4.88,11.99
5.23,2,0,1,98416.72,20.51,319.44,0,0.02,0.00,-0.26,-4.63,4.76,37.32,-55.5087,-4.45664,-10.5359,3.30,4.87,12.02
5.25,2,0,1,98393.42,20.51,321.42,0,0.03,-0.00,-0.24,-5.37,4.76,36.65,-54.4255,-4.79541,-10.6043,3.30,4.87,11.94
5.28,2,0,1,98387.33,20.52,321.94,0,-0.01,0.02,-0.27,-5.49,5.91,36.77,-53.7159,-4.99892,-10.6488,3.30,4.87,11.84
5.30,2,0,1,98382.14,20.52,322.38,0,0.02,0.01,-0.25,-5.06,5.18,36.71,-53.0007,-5.22053,-10.6894,3.30,4.87,11.88
5.32,2,0,1,98374.38,20.52,323.04,0,0.02,0.04,-0.24,-5.37,6.16,36.77,-52.302,-5.4535,-10.7316,3.30,4.87,12.08
5.34,2,0,1,98356.25,20.52,324.59,0,-0.01,0.02,-0.25,-5.91,6.46,35.61,-51.6136,-5.67131,-10.7702,3.30,4.87,12.18
5.36,2,0,1,98351.08,20.52,325.03,0,0.02,0.00,-0.23,-5.00,6.65,35.79,-50.9124,-5.88834,-10.7973,3.30,4.87,12.18
5.38,2,0,1,98338.13,20.52,326.13,0,0.04,0.06,-0.24,-5.55,6.71,36.28,-50.2476,-6.09339,-10.8324,3.30,4.87,12.17
5.40,2,0,1,98319.20,20.52,327.74,0,0.05,-0.00,-0.24,-4.88,6.95,35.12,-49.56,-6.33379,-10.8552,3.30,4.87,12.18
5.42,2,0,0,98320.02,20.52,328.11,0,-0.01,0.00,-0.24,-4.76,7.32,35.24,-48.8822,-6.56194,-10.8758,3.30,4.87,12.18
5.44,2,0,0,98302.73,20.53,329.14,0,0.03,0.03,-0.21,-4.45,7.44,35.24,-48.2319,-6.78183,-10.9064,3.29,4.87,12.20
5.46,2,0,0,98304.48,20.52,329.88,0,0.04,-0.01,-0.23,-4.94,7.80,34.33,-47.1963,-7.17055,-10.9065,3.30,4.87,12.20
5.49,2,0,0,98289.80,20.53,330.24,0,0.01,0.04,-0.19,-4.33,8.35,35.00,-46.5213,-7.42563,-10.9078,3.30,4.87,12.18
5.51,2,0,0,98278.59,20.52,331.86,0,0.02,0.04,-0.23,-4.09,8.60,34.57,-45.867,-7.67268,-10.9141,3.30,4.87,12.20
5.53,2,0,0,98261.39,20.51,332.66,0,0.03,0.04,-0.22,-4.45,8.60,33.78,-45.2045,-7.92656,-10.9129,3.30,4.87,12.18
5.55,2,0,0,98257.06,20.52,333.25,0,0.03,0.04,-0.26,-4.02,8.84,34.15,-44.5646,-8.16748,-10.9096,3.30,4.87,12.18
5.57,2,0,0,98239.76,20.52,334.51,0,0.04,0.02,-0.21,-3.29,9.15,33.60,-43.8957,-8.43179,-10.8915,3.30,4.87,12.20
5.59,2,0,0,98237.17,20.52,334.73,0,0.03,0.05,-0.22,-3.78,9.39,34.15,-43.2682,-8.6726,-10.8714,3.30,4.86,12.18
5.61,2,0,0,98216.46,20.52,336.49,0,0.05,0.04,-0.24,-2.50,9.15,32.74,-42.6171,-8.93224,-10.8362,3.30,4.87,12.17
5.63,2,0,0,98213.88,20.52,336.71,0,0.04,0.06,-0.24,-2.80,9.45,33.17,-41.9689,-9.20227,-10.7996,3.30,4.87,12.18
5.65,2,0,0,98206.10,20.52,337.38,0,0.02,0.04,-0.23,-2.38,9.82,32.99,-41.3328,-9.46794,-10.7497,3.30,4.87,12.17
5.67,2,0,0,98193.16,20.52,338.48,0,0.02,0.06,-0.22,-2.50,9.33,31.77,-40.4075,-9.84952,-10.7018,3.30,4.87,12.17
5.70,2,0,0,98180.22,20.52,339.58,0,0.03,0.02,-0.22,-2.26,9.51,31.95,-39.7856,-10.1147,-10.6553,3.30,4.87,12.10
5.72,2,0,0,98169.05,20.52,340.53,0,0.02,0.02,-0.22,-1.52,10.00,31.95,-39.1595,-10.3521,-10.5904,3.30,4.85,12.05
5.74,2,0,0,98154.33,20.51,341.79,0,0.05,0.04,-0.18,-0.91,9.09,32.38,-38.5143,-10.6152,-10.5198,3.27,4.87,12.12
5.76,2,0,0,98147.49,20.51,342.37,0,0.03,0.05,-0.25,-1.10,9.09,32.56,-37.9297,-10.8398,-10.4706,3.29,4.87,12.12
5.78,2,0,0,98138.80,20.52,343.11,0,0.06,-0.02,-0.23,-0.67,8.90,31.10,-37.0135,-11.2295,-10.3647,3.29,4.87,12.12
5.81,2,0,0,98133.62,20.52,343.56,0,0.02,0.04,-0.23,-1.04,9.15,30.79,-36.385,-11.4838,-10.2873,3.30,4.87,12.12
5.83,2,0,0,98122.45,20.52,344.51,0,0.05,0.04,-0.25,-0.55,9.21,32.20,-35.7896,-11.6974,-10.2096,3.30,4.86,12.07
5.85,2,0,0,98129.29,20.53,343.93,0,0.06,0.02,-0.17,0.12,8.23,31.40,-35.1934,-11.927,-10.1419,3.30,4.87,12.05
5.87,2,0,0,98097.38,20.53,346.65,0,0.05,0.02,-0.20,-0.91,8.11,31.04,-34.5859,-12.1648,-10.0649,3.30,4.87,11.99
5.89,2,0,0,98098.23,20.53,346.57,0,0.04,0.02,-0.22,-0.67,7.99,31.28,-33.9828,-12.3896,-9.98912,3.30,4.87,12.07
5.91,2,0,0,98084.44,20.52,347.75,0,0.05,0.02,-0.19,-0.91,7.56,31.34,-33.3788,-12.6116,-9.91261,3.30,4.86,12.00
5.93,2,0,0,98083.54,20.53,347.83,0,0.06,0.02,-0.22,-1.04,7.38,31.46,-32.7692,-12.8403,-9.83376,3.30,4.87,11.92
5.95,2,0,0,98066.31,20.52,349.30,0,0.04,0.01,-0.18,-1.10,7.44,31.65,-32.1608,-13.0618,-9.75957,3.30,4.87,11.96
5.97,2,0,0,98055.95,20.52,350.18,0,0.05,-0.00,-0.20,-1.52,7.20,31.89,-31.5356,-13.2874,-9.67329,3.30,4.87,11.83
5.99,2,0,0,98046.53,20.51,350.99,0,0.06,0.03,-0.20,-1.89,7.26,32.26,-30.6069,-13.6423,-9.54588,3.30,4.87,11.73
6.02,2,0,0,98036.94,20.53,351.80,0,0.02,-0.01,-0.23,-1.65,7.38,31.95,-29.9766,-13.8793,-9.44634,3.30,4.86,11.83
6.04,2,0,0,98024.89,20.52,352.83,0,0.03,0.02,-0.19,-1.46,7.01,32.07,-29.3167,-14.0967,-9.30907,3.30,4.87,11.78
6.06,2,0,0,98003.38,20.52,354.67,0,0.06,0.05,-0.17,-0.85,6.83,32.99,-28.695,-14.3305,-9.21235,3.30,4.86,11.75
6.08,2,0,0,98008.55,20.52,354.23,0,0.02,-0.00,-0.21,-1.71,6.95,31.89,-28.0598,-14.5715,-9.10189,3.30,4.87,11.71
6.10,2,0,0,97998.11,20.53,355.12,0,0.03,0.02,-0.21,-1.40,7.26,32.26,-27.4255,-14.8116,-8.97985,3.30,4.85,11.79
6.12,2,0,0,97993.83,20.52,356.59,0,0.03,0.04,-0.20,-1.52,7.07,31.59,-26.7854,-15.053,-8.8512,3.30,4.86,12.13
6.14,2,0,0,97978.25,20.54,356.81,0,0.00,0.04,-0.20,-1.65,6.83,31.59,-26.1402,-15.2912,-8.71274,3.30,4.87,12.13
6.16,2,0,0,97974.81,20.53,357.99,0,0.04,0.05,-0.19,-1.46,7.20,31.83,-25.5179,-15.5334,-8.59313,3.30,4.87,12.18
6.18,2,0,0,97962.77,20.52,358.14,0,0.02,0.02,-0.21,-1.59,7.44,31.40,-24.5946,-15.9012,-8.40867,3.30,4.87,12.08
6.21,2,0,1,97952.41,20.52,359.02,0,0.02,0.02,-0.20,-1.46,7.80,31.04,-23.9889,-16.1494,-8.28853,3.30,4.86,11.92
6.23,2,0,1,97948.08,20.53,359.39,0,0.01,0.01,-0.18,-1.65,8.17,30.67,-23.3785,-16.3954,-8.1606,3.29,4.86,12.02
6.25,2,0,1,97936.88,20.52,360.35,0,0.05,0.03,-0.19,-1.65,8.54,30.85,-22.4472,-16.774,-7.93483,3.30,4.87,12.12
6.28,2,0,1,97918.77,20.52,361.90,0,0.03,0.06,-0.21,-1.52,8.60,30.30,-21.8757,-17.023,-7.81708,3.30,4.85,12.13
6.30,2,0,1,97916.17,20.52,362.12,0,-0.02,-0.02,-0.18,-1.52,8.90,29.27,-21.2753,-17.2827,-7.6764,3.30,4.87,12.05
6.32,2,0,1,97905.82,20.52,363.00,0,0.01,0.03,-0.20,-1.46,9.15,29.88,-20.6755,-17.5415,-7.52251,3.30,4.87,12.20
6.34,2,0,1,97897.16,20.53,363.74,0,0.02,0.04,-0.19,-0.85,9.27,29.57,-20.0791,-17.8107,-7.37779,3.30,4.87,12.15
6.36,2,0,1,97887.70,20.52,364.55,0,0.03,0.04,-0.21,-1.71,10.12,29.57,-19.4924,-18.0809,-7.22209,3.29,4.87,12.28
6.38,2,0,1,97876.45,20.53,365.51,0,0.01,0.05,-0.22,-0.98,10.30,28.78,-18.9342,-18.3406,-7.0832,3.30,4.87,12.12
6.40,2,0,1,97873.86,20.53,365.73,0,0.03,0.02,-0.19,-1.04,9.88,28.11,-18.3672,-18.6014,-6.93295,3.30,4.87,12.15
6.42,2,0,0,97871.27,20.53,365.95,0,0.05,0.03,-0.19,-0.79,10.30,28.41,-17.7639,-18.8595,-6.74365,3.30,4.86,12.18
6.44,2,0,0,97859.22,20.52,366.98,0,0.03,0.06,-0.16,-0.24,10.12,28.90,-16.9289,-19.2607,-6.50551,3.30,4.86,12.18
6.47,2,0,0,97850.56,20.53,367.72,0,0.02,0.03,-0.20,-0.37,10.49,27.62,-16.3893,-19.5394,-6.35658,3.30,4.87,12.15
6.49,2,0,0,97841.05,20.54,368.54,0,-0.01,0.00,-0.20,-0.37,11.52,27.32,-15.8087,-19.8117,-6.1626,3.30,4.87,12.08
6.51,2,0,0,97835.03,20.53,369.05,0,0.03,0.06,-0.17,0.24,11.40,27.80,-15.2521,-20.0917,-5.98821,3.30,4.87,12.18
6.53,2,0,0,97829.00,20.53,369.57,0,0.01,0.02,-0.19,0.55,11.52,27.74,-14.7039,-20.37,-5.81201,3.30,4.87,12.17
6.55,2,0,0,97819.50,20.53,370.38,0,0.02,0.02,-0.18,0.73,11.52,27.32,-14.15,-20.6483,-5.62729,3.31,4.89,12.17
6.57,2,0,0,97815.22,20.52,370.75,0,0.03,0.04,-0.19,0.37,11.65,27.07,-13.6077,-20.9409,-5.44731,3.30,4.87,12.07
6.59,2,0,0,97812.63,20.52,370.97,0,0.02,0.03,-0.20,0.49,12.62,26.77,-13.0524,-21.2199,-5.24525,3.30,4.86,12.05
6.61,2,0,0,97804.86,20.52,371.63,0,0.03,0.04,-0.18,1.40,11.83,27.01,-12.518,-21.4841,-5.05829,3.30,4.87,12.17
6.63,2,0,0,97787.59,20.53,373.11,0,0.07,0.02,-0.16,1.04,12.20,26.83,-11.9628,-21.7544,-4.84628,3.30,4.86,12.10
6.65,2,0,0,97778.08,20.53,373.92,0,0.05,0.04,-0.15,1.40,12.07,26.77,-11.1326,-22.2012,-4.54795,3.30,4.87,12.15
6.68,2,0,0,97767.72,20.53,374.81,0,-0.02,0.01,-0.19,1.10,12.93,27.56,-10.5991,-22.4868,-4.34751,3.30,4.86,12.18
6.70,2,0,0,97770.31,20.53,374.59,0,0.02,0.03,-0.22,1.22,12.26,26.22,-10.0566,-22.7797,-4.14385,3.30,4.87,12.04
6.72,2,0,0,97756.53,20.53,375.76,0,0.04,0.01,-0.20,1.52,12.87,27.20,-9.50194,-23.0777,-3.92586,3.30,4.87,12.07
6.74,2,0,0,97746.17,20.53,377.09,0,-0.00,0.02,-0.20,1.77,12.99,27.38,-8.93535,-23.3669,-3.68867,3.30,4.86,12.05
6.76,2,0,0,97742.74,20.52,376.94,0,0.02,0.06,-0.19,1.71,12.80,26.95,-8.11269,-23.7955,-3.34775,3.29,4.87,12.12
6.79,2,0,0,97736.66,20.53,377.69,0,0.05,0.03,-0.17,1.71,12.80,26.65,-7.573,-24.0926,-3.12738,3.30,4.85,11.89
6.81,2,0,0,97725.47,20.53,378.42,0,0.03,0.00,-0.19,2.07,13.17,27.13,-7.01961,-24.3868,-2.88637,3.30,4.87,12.00
6.83,2,0,0,97721.13,20.53,378.57,0,0.01,0.02,-0.20,2.68,12.87,27.20,-6.47729,-24.6649,-2.64231,3.30,4.86,11.91
6.85,2,0,0,97716.80,20.54,379.16,0,0.06,0.02,-0.17,2.99,12.62,26.59,-5.92735,-24.963,-2.40091,3.28,4.86,11.99
6.87,2,0,0,97710.78,20.53,380.34,0,0.04,0.02,-0.19,2.13,13.35,26.95,-5.37634,-25.2549,-2.14565,3.30,4.86,11.94
6.89,2,0,0,97704.76,20.53,380.20,0,0.01,0.03,-0.19,2.93,12.87,26.71,-4.85055,-25.5469,-1.89827,3.30,4.86,11.92
6.91,2,0,0,97699.48,20.54,380.65,0,0.02,0.01,-0.17,3.41,12.93,25.91,-4.31949,-25.818,-1.64283,3.30,4.87,11.99
6.93,2,0,0,97691.72,20.54,381.31,0,0.07,0.04,-0.18,2.62,12.68,25.24,-3.79528,-26.109,-1.39411,3.30,4.87,11.99
6.95,2,0,0,97680.56,20.54,382.27,0,0.04,0.01,-0.18,2.93,13.05,25.79,-2.99295,-26.5462,-1.00191,3.29,4.87,11.68
6.98,2,0,0,97679.72,20.53,382.34,0,0.02,0.02,-0.20,3.11,12.93,26.04,-2.43154,-26.8109,-0.71023,3.30,4.86,12.15
7.00,2,0,0,97666.77,20.53,383.45,0,0.06,0.07,-0.17,3.11,12.74,25.85,-1.90484,-27.0922,-0.44192,3.30,4.87,12.08
7.02,2,0,0,97661.59,20.53,383.89,0,0.04,0.01,-0.16,3.60,12.62,25.73,-1.37572,-27.3673,-0.17262,3.30,4.87,12.02
7.04,2,0,0,97658.08,20.54,384.19,0,0.04,0.01,-0.15,3.17,12.32,25.79,-0.84372,-27.6501,0.105471,3.29,4.88,11.83
7.06,2,0,0,97648.66,20.53,385.00,0,0.01,0.02,-0.18,3.48,12.56,25.73,-0.28708,-27.9237,0.404265,3.30,4.86,11.91
7.08,2,0,0,97644.32,20.54,385.37,0,0.04,0.05,-0.18,3.29,12.62,26.04,0.254743,-28.1894,0.698117,3.30,4.87,11.89
7.10,2,0,0,97638.30,20.53,385.88,0,0.04,0.04,-0.16,3.23,12.20,25.37,0.778763,-28.4627,0.983179,3.30,4.86,11.92
7.12,2,0,0,97630.53,20.53,386.55,0,0.02,0.01,-0.15,3.72,12.13,25.43,1.297273,-28.7315,1.267888,3.30,4.87,11.91
7.14,2,0,0,97622.77,20.53,387.21,0,0.04,0.01,-0.17,3.60,12.07,25.12,1.831323,-28.9889,1.569562,3.30,4.87,11.96
7.16,2,0,0,97623.61,20.54,387.14,0,0.05,0.03,-0.15,3.60,12.01,25.06,2.621126,-29.3829,2.023294,3.30,4.86,11.92
7.19,2,0,0,97610.67,20.54,388.25,0,0.04,0.03,-0.18,3.84,11.95,24.88,3.154432,-29.6305,2.338467,3.30,4.86,12.07
7.21,2,0,1,97606.30,20.54,388.63,0,0.05,0.03,-0.15,4.27,11.59,24.94,3.661674,-29.8903,2.635212,3.29,4.87,11.89
7.23,2,0,1,97596.88,20.53,389.43,0,0.03,0.00,-0.18,4.21,11.59,24.76,4.481982,-30.2674,3.136058,3.30,4.85,11.83
7.26,2,0,1,97597.73,20.54,389.36,0,0.02,0.06,-0.19,4.57,11.71,25.30,5.021351,-30.5055,3.467496,3.30,4.87,11.94
7.28,2,0,1,97585.69,20.53,390.39,0,0.05,0.04,-0.17,4.39,11.28,25.00,5.556327,-30.7513,3.798484,3.30,4.87,11.96
7.30,2,0,1,97586.53,20.53,390.32,0,0.03,0.04,-0.18,4.33,11.46,24.94,6.083161,-30.9914,4.129075,3.31,4.87,11.99
7.32,2,0,1,97576.18,20.53,391.21,0,0.04,0.03,-0.17,4.51,11.22,24.63,6.61925,-31.2196,4.472942,3.30,4.87,12.04
7.34,2,0,1,97572.66,20.54,391.51,0,0.07,0.03,-0.16,5.06,11.40,24.82,7.157695,-31.4364,4.822798,3.30,4.87,12.08
7.36,2,0,1,97567.48,20.54,391.95,0,0.04,0.06,-0.16,4.82,10.67,24.39,7.678034,-31.6633,5.1645,3.30,4.87,12.05
7.38,2,0,1,97562.30,20.54,392.39,0,0.04,0.04,-0.17,4.94,10.85,23.96,8.207872,-31.8726,5.513786,3.30,4.89,12.04
7.40,2,0,1,97556.31,20.54,392.91,0,0.06,0.03,-0.15,5.00,10.49,24.39,8.735211,-32.0916,5.867011,3.30,4.87,12.07
7.42,2,0,0,97551.95,20.54,393.28,0,0.04,0.03,-0.14,5.18,10.73,24.27,9.512915,-32.4256,6.39568,3.30,4.86,12.07
7.45,2,0,0,97545.02,20.55,393.88,0,0.03,0.03,-0.18,5.37,10.61,24.15,10.0396,-32.6362,6.758699,3.30,4.87,12.08
7.47,2,0,0,97545.12,20.53,393.87,0,0.04,0.04,-0.17,5.43,10.43,24.15,10.57021,-32.8452,7.126599,3.30,4.87,12.08
7.49,2,0,0,97533.02,20.54,394.90,0,0.03,0.04,-0.16,5.37,10.43,24.33,11.09703,-33.0541,7.497466,3.30,4.86,12.08
7.51,2,0,0,97531.23,20.54,395.06,0,0.04,0.03,-0.17,5.73,10.43,24.33,11.6471,-33.2493,7.891035,3.30,4.88,12.07
7.53,2,0,0,97526.06,20.54,395.50,0,0.03,0.06,-0.16,6.16,10.30,24.82,12.17533,-33.4416,8.270736,3.30,4.87,12.08
7.55,2,0,0,97514.05,20.53,396.53,0,0.04,0.05,-0.17,5.73,10.06,23.90,12.69494,-33.6415,8.651263,3.30,4.88,12.08
7.57,2,0,0,97510.53,20.54,396.83,0,0.05,0.03,-0.18,6.22,10.30,23.84,13.2157,-33.8362,9.0372,3.30,4.86,12.08
7.59,2,0,0,97505.36,20.54,397.28,0,0.04,0.04,-0.17,6.28,10.18,23.66,13.73091,-34.0359,9.422099,3.30,4.87,12.07
7.61,2,0,0,97505.36,20.54,397.28,0,0.02,0.03,-0.16,6.28,10.24,23.72,14.21809,-34.2436,9.791146,3.30,4.87,12.05
7.63,2,0,0,97499.37,20.54,397.79,0,0.01,0.01,-0.19,6.28,10.24,22.99,14.99296,-34.5167,10.38546,3.29,4.87,12.10
7.66,2,0,0,97489.83,20.54,398.61,0,0.05,0.04,-0.16,6.52,10.06,23.17,15.49882,-34.6978,10.77744,3.30,4.87,12.08
7.68,2,0,0,97489.83,20.54,398.61,0,0.04,0.03,-0.15,6.40,9.88,22.87,15.9932,-34.8918,11.16904,3.30,4.87,12.10
7.70,2,0,0,97476.88,20.54,399.72,0,0.03,0.02,-0.16,6.83,10.18,22.68,16.52508,-35.0658,11.59009,3.30,4.87,11.94
7.72,2,0,0,97477.81,20.53,399.64,0,0.03,0.06,-0.17,7.01,10.12,23.72,17.29233,-35.3225,12.20722,3.30,4.87,11.92
7.75,2,0,0,97476.88,20.54,399.72,0,0.04,0.03,-0.16,7.07,9.70,23.11,17.78342,-35.4978,12.61207,3.30,4.87,11.94
7.77,2,0,0,97471.80,20.53,400.15,0,0.04,0.04,-0.17,7.13,9.88,21.89,18.26662,-35.6806,13.01507,3.30,4.90,11.94
7.79,2,0,0,97468.31,20.54,400.45,0,0.03,0.02,-0.18,7.26,9.94,22.07,18.78095,-35.8598,13.44384,3.30,4.87,11.97
7.81,2,0,0,97461.35,20.54,401.05,0,0.02,0.04,-0.19,7.44,10.37,23.29,19.29632,-36.0182,13.87862,3.30,4.86,12.10
7.83,2,0,0,97453.59,20.54,401.71,0,0.05,0.05,-0.15,7.62,10.12,22.50,19.81246,-36.1675,14.31603,3.30,4.87,12.05
7.85,2,0,0,97458.77,20.54,401.27,0,0.03,0.05,-0.14,7.56,9.63,22.68,20.29272,-36.3499,14.73407,3.30,4.87,12.08
7.87,2,0,0,97453.59,20.54,401.71,0,0.02,-0.02,-0.15,8.11,10.12,22.93,20.81198,-36.4962,15.18377,3.30,4.87,12.08
7.89,2,0,0,97438.05,20.54,403.05,0,0.03,0.07,-0.17,7.87,9.82,22.68,21.32738,-36.6398,15.63393,3.30,4.86,11.81
7.91,2,0,0,97447.50,20.55,402.24,0,0.05,0.05,-0.17,7.87,9.82,22.56,21.85447,-36.7903,16.10293,3.30,4.87,12.08
7.93,2,0,0,97432.88,20.54,403.49,0,0.03,0.04,-0.16,8.66,10.06,23.41,22.63189,-37.0154,16.80533,3.30,4.87,12.10
7.96,2,0,0,97430.29,20.54,403.71,0,0.03,0.04,-0.17,8.66,10.06,22.99,23.14584,-37.1452,17.27485,3.30,4.87,12.08
7.98,2,0,0,97429.38,20.55,403.79,0,0.05,0.08,-0.17,8.66,9.88,21.89,23.66298,-37.2768,17.75378,3.30,4.87,12.10
8.00,2,0,0,97425.11,20.54,404.16,0,0.04,0.06,-0.15,9.02,9.94,22.20,24.16805,-37.417,18.22854,3.30,4.87,12.08
8.02,2,0,0,97419.03,20.55,404.68,0,0.04,0.03,-0.15,9.02,10.00,22.13,24.67664,-37.5596,18.7095,3.30,4.87,12.04
8.04,2,0,0,97413.85,20.55,405.12,0,0.02,0.05,-0.16,8.84,10.37,22.20,25.17347,-37.7028,19.19054,3.30,4.87,12.10
8.06,2,0,0,97412.17,20.54,405.27,0,0.03,0.02,-0.16,9.45,10.00,22.07,25.70224,-37.8046,19.69657,3.30,4.86,12.05
8.08,2,0,0,97409.58,20.54,405.49,0,0.07,0.04,-0.13,9.88,9.88,22.44,26.21405,-37.9241,20.19585,3.31,4.87,12.10
8.10,2,0,0,97403.50,20.55,406.01,0,0.02,0.03,-0.14,9.63,9.57,22.56,26.72853,-38.0532,20.70524,3.30,4.87,11.92
8.12,2,0,0,97404.41,20.54,405.93,0,0.03,0.03,-0.16,9.82,10.30,22.56,27.52251,-38.2224,21.49991,3.30,4.87,11.91
8.15,2,0,0,97392.31,20.55,406.97,0,0.03,0.05,-0.17,10.43,10.06,22.93,28.05274,-38.3157,22.03268,3.30,4.87,11.88
8.17,2,0,0,97393.14,20.55,406.90,0,0.07,0.06,-0.17,10.37,10.06,22.32,28.57453,-38.4193,22.56565,3.30,4.87,11.92
8.19,2,0,0,97394.05,20.54,406.82,0,0.02,0.05,-0.14,10.30,10.12,22.38,29.37748,-38.5327,23.38593,3.30,4.87,12.07
8.22,2,0,1,97386.29,20.54,407.49,0,0.08,0.08,-0.17,10.61,10.12,22.13,29.89699,-38.6185,23.93156,3.30,4.86,11.89
8.24,2,0,1,97381.11,20.54,408.38,0,0.03,0.05,-0.14,10.85,9.76,22.01,30.43131,-38.6882,24.49115,3.30,4.86,11.92
8.26,2,0,1,97369.95,20.54,408.89,0,0.07,0.08,-0.16,10.91,10.30,21.95,30.92736,-38.7803,25.02846,3.30,4.87,11.94
8.28,2,0,1,97385.48,20.54,407.56,0,0.03,0.02,-0.15,10.79,9.70,21.46,31.45444,-38.8409,25.59268,3.30,4.87,11.89
8.30,2,0,1,97368.17,20.54,409.04,0,0.04,0.06,-0.13,11.04,9.82,21.83,31.95419,-38.93,26.14652,3.30,4.87,11.97
8.32,2,0,1,97374.19,20.55,408.53,0,0.02,0.03,-0.16,11.16,10.06,21.52,32.46357,-38.9957,26.71026,3.30,4.87,12.08
8.34,2,0,1,97370.76,20.54,408.82,0,0.05,0.05,-0.16,11.28,9.88,21.16,32.98033,-39.0642,27.28996,3.30,4.86,12.07
8.36,2,0,1,97354.32,20.55,410.23,0,0.02,0.04,-0.16,11.71,10.00,22.07,33.50172,-39.1085,27.87539,3.30,4.87,12.07
8.38,2,0,1,97362.89,20.56,409.50,0,0.05,0.05,-0.14,11.89,9.70,21.46,34.01095,-39.17,28.4614,3.30,4.87,12.04
8.40,2,0,1,97362.09,20.55,409.56,0,0.02,0.04,-0.15,12.01,10.00,21.52,34.76031,-39.2595,29.33456,3.30,4.86,12.02
8.43,2,0,0,97356.91,20.55,410.01,0,0.04,0.02,-0.16,11.77,10.12,21.10,35.27792,-39.2873,29.93664,3.30,4.87,11.73
8.45,2,0,0,97353.48,20.55,410.30,0,0.04,0.07,-0.16,12.26,9.70,21.16,35.76406,-39.3413,30.52274,3.30,4.87,11.92
8.47,2,0,0,97340.54,20.55,411.41,0,0.02,-0.00,-0.13,12.38,9.70,21.04,36.27518,-39.3621,31.12925,3.30,4.87,12.10
8.49,2,0,0,97343.97,20.55,411.12,0,0.06,0.04,-0.14,12.38,10.00,20.67,36.78555,-39.3869,31.74496,3.30,4.87,12.18
8.51,2,0,0,97339.70,20.54,411.49,0,0.02,0.04,-0.16,12.62,9.88,21.40,37.30922,-39.3837,32.37052,3.29,4.87,12.10
8.53,2,0,0,97341.38,20.55,411.34,0,0.03,0.06,-0.13,12.50,9.76,21.28,37.8205,-39.3952,33.0016,3.30,4.87,12.02
8.55,2,0,0,97334.52,20.54,411.93,0,0.04,0.04,-0.17,13.29,9.88,21.04,38.3483,-39.3671,33.63664,3.30,4.87,12.00
8.57,2,0,0,97336.20,20.55,411.34,0,0.08,0.07,-0.16,12.68,9.88,20.91,38.85046,-39.3669,34.26684,3.30,4.87,12.18
8.59,2,0,0,97331.94,20.54,412.15,0,0.02,0.03,-0.14,13.17,9.70,20.85,39.37359,-39.3376,34.91636,3.30,4.87,12.10
8.61,2,0,0,97345.62,20.56,411.65,0,0.06,0.06,-0.18,13.35,9.76,21.04,40.15314,-39.2761,35.89,3.30,4.87,12.17
8.64,2,0,0,97325.85,20.55,412.68,0,0.03,0.06,-0.15,13.17,9.51,21.04,40.656,-39.2479,36.53576,3.30,4.88,12.18
8.66,2,0,0,97318.99,20.54,413.26,0,0.04,0.05,-0.19,13.41,9.94,20.37,41.13538,-39.2268,37.16737,3.30,4.87,12.20
8.68,2,0,0,97325.85,20.55,412.68,0,0.00,0.02,-0.14,13.72,9.33,20.18,41.65256,-39.1545,37.82615,3.30,4.87,12.20
8.70,2,0,0,97320.67,20.55,413.12,0,0.05,0.05,-0.13,13.60,9.39,20.37,42.41947,-39.0533,38.8203,3.30,4.87,12.07
8.73,2,0,0,97320.67,20.55,413.12,0,0.04,0.04,-0.15,13.66,9.76,20.49,42.91124,-38.9907,39.47169,3.30,4.87,12.04
8.75,2,0,0,97316.41,20.54,413.49,0,0.01,0.02,-0.13,13.78,9.45,20.37,43.45147,-38.859,40.15401,3.30,4.88,12.15
8.77,2,0,0,97313.81,20.54,413.71,0,0.08,0.08,-0.14,13.66,9.57,20.79,43.95396,-38.765,40.81857,3.30,4.87,12.17
8.79,2,0,0,97310.32,20.55,414.01,0,0.00,0.06,-0.15,14.02,9.39,20.43,44.45684,-38.6575,41.48381,3.30,4.87,12.10
8.81,2,0,0,97311.23,20.54,413.93,0,0.06,0.03,-0.18,14.02,9.33,20.00,44.96875,-38.5321,42.16004,3.30,4.86,12.20
8.83,2,0,0,97304.30,20.55,414.53,0,0.02,0.06,-0.13,14.33,9.21,20.24,45.49556,-38.3817,42.84892,3.30,4.87,12.04
8.85,2,0,0,97310.32,20.55,414.01,0,0.05,0.05,-0.13,14.39,9.33,20.49,46.01641,-38.2262,43.53404,3.30,4.87,11.99
8.87,2,0,0,97307.73,20.55,414.23,0,0.07,0.05,-0.14,14.57,9.51,19.94,46.72441,-38.0496,44.50426,3.30,4.87,11.99
8.90,2,0,0,97300.88,20.54,414.82,0,-0.01,0.00,-0.14,14.45,9.15,20.06,47.25492,-37.8572,45.19756,3.30,4.87,12.13
8.92,2,0,0,97306.05,20.54,414.38,0,0.06,0.05,-0.13,14.70,9.27,20.37,47.75152,-37.6914,45.86353,3.30,4.87,12.07
8.94,2,0,0,97306.79,20.56,414.31,0,0.02,0.04,-0.17,14.51,9.27,19.88,48.27103,-37.4917,46.54947,3.31,4.87,12.00
8.96,2,0,0,97300.77,20.56,414.83,0,0.04,0.05,-0.13,15.00,9.21,20.06,48.78137,-37.2918,47.22635,3.30,4.87,12.04
8.98,2,0,0,97294.79,20.55,415.34,0,0.03,0.04,-0.15,14.94,9.21,20.12,49.29379,-37.0757,47.89865,3.30,4.88,12.02
9.00,2,0,0,97299.97,20.55,414.90,0,0.04,0.06,-0.17,14.63,9.33,19.94,49.80295,-36.8559,48.56849,3.30,4.87,11.91
9.02,2,0,0,97305.14,20.55,414.45,1,0.04,0.04,-0.17,14.94,9.45,19.94,50.29401,-36.6405,49.21702,3.30,4.87,11.97
9.04,2,0,0,97301.61,20.56,414.76,0,0.02,0.03,-0.17,14.88,9.21,19.57,50.80735,-36.3953,49.88537,3.30,4.87,11.86
9.06,2,0,0,97289.61,20.56,415.79,0,0.03,0.03,-0.13,15.61,9.15,20.06,51.3349,-36.1085,50.54869,3.30,4.87,12.07
9.08,2,0,0,97293.95,20.55,415.41,0,0.08,0.08,-0.14,15.00,8.78,19.57,51.84229,-35.8372,51.19328,3.30,4.87,11.94
9.10,2,0,0,97294.79,20.55,415.34,0,0.06,0.04,-0.15,15.30,8.66,19.27,52.61448,-35.4015,52.15843,3.30,4.87,12.04
9.13,2,0,0,97299.02,20.56,414.98,1,0.06,0.04,-0.14,15.49,8.78,19.45,53.11255,-35.1175,52.77713,3.30,4.87,12.02
9.15,2,0,0,97297.38,20.55,415.12,0,0.02,0.03,-0.16,15.37,8.84,19.70,53.63749,-34.7932,53.41001,3.30,4.86,12.08
9.17,2,0,0,97299.97,20.55,414.90,1,0.05,0.06,-0.15,15.49,8.84,19.94,54.13603,-34.4831,54.00702,3.30,4.88,12.15
9.19,2,0,0,97291.26,20.56,415.65,0,0.03,0.06,-0.15,15.49,8.48,19.02,54.89761,-33.98,54.8917,3.30,4.87,12.17
9.22,2,0,1,97279.27,20.55,416.68,0,0.07,0.03,-0.13,15.61,8.29,18.90,55.41985,-33.6194,55.48038,3.32,4.87,11.97
9.24,2,0,1,97287.02,20.55,416.01,0,0.07,0.07,-0.15,15.73,8.48,19.33,55.91958,-33.2708,56.03312,3.30,4.87,12.00
9.26,2,0,1,97291.26,20.56,415.65,1,0.04,0.04,-0.13,15.49,8.05,18.90,56.42307,-32.9113,56.57538,3.30,4.86,12.00
9.28,2,0,1,97283.49,20.56,416.31,0,0.03,0.05,-0.13,15.98,7.99,19.09,56.91232,-32.556,57.08663,3.29,4.87,12.08
9.30,2,0,1,97283.59,20.55,416.30,0,0.03,0.03,-0.14,15.85,7.74,18.78,57.39745,-32.1949,57.5756,3.30,4.87,11.99
9.32,2,0,1,97281.84,20.55,416.45,0,0.04,0.03,-0.14,15.61,7.87,18.35,57.85677,-31.852,58.01993,3.30,4.87,12.17
9.34,2,0,1,97287.02,20.55,416.01,1,0.02,0.00,-0.15,15.73,7.68,18.05,58.3759,-31.4362,58.50556,3.30,4.87,12.15
9.36,2,0,1,97281.84,20.55,416.45,0,0.10,0.08,-0.16,15.67,7.80,18.84,59.13389,-30.8241,59.17252,3.30,4.87,12.13
9.39,2,0,1,97282.66,20.56,416.38,0,0.03,0.05,-0.13,15.79,7.74,19.15,59.6323,-30.4117,59.58423,3.30,4.90,12.17
9.41,2,0,1,97285.24,20.56,416.16,1,0.05,0.04,-0.14,15.61,7.32,18.66,60.15347,-29.9684,59.99787,3.30,4.87,12.17
9.43,2,0,0,97284.44,20.55,416.23,0,0.06,0.08,-0.15,15.43,7.50,19.33,60.64281,-29.5532,60.35087,3.30,4.87,12.13
9.45,2,0,0,97283.49,20.56,416.31,0,0.04,0.01,-0.13,15.85,7.56,18.66,61.14053,-29.1231,60.68642,3.30,4.87,12.18
9.47,2,0,0,97284.34,20.57,416.24,0,0.02,0.03,-0.15,15.79,7.38,19.45,61.63152,-28.692,60.99294,3.29,4.86,12.18
9.49,2,0,0,97286.08,20.56,416.09,1,0.04,0.02,-0.13,15.49,7.20,18.66,62.15151,-28.2256,61.30461,3.30,4.86,12.20
9.51,2,0,0,97286.08,20.56,416.09,2,0.07,0.07,-0.15,15.55,7.50,19.15,62.63232,-27.7947,61.54173,3.30,4.87,12.12
9.53,2,0,0,97286.08,20.56,416.09,3,0.02,0.02,-0.15,15.73,7.50,18.72,63.11157,-27.3601,61.74953,3.30,4.87,12.17
9.55,2,0,0,97288.67,20.56,415.87,4,0.02,0.02,-0.15,15.73,7.26,18.66,63.61989,-26.8911,61.96228,3.30,4.87,12.18
9.57,2,0,0,97293.84,20.56,415.42,5,0.05,0.05,-0.15,15.67,7.13,19.09,64.38178,-26.1806,62.22537,3.30,4.87,12.18
9.60,2,0,0,97291.26,20.56,415.65,6,0.05,0.07,-0.15,15.85,7.07,18.84,64.87338,-25.7189,62.34867,3.30,4.87,12.13
9.62,2,0,0,97286.08,20.56,416.09,0,0.06,0.05,-0.14,16.04,6.65,17.93,65.36097,-25.2577,62.4413,3.30,4.87,12.20
9.64,2,0,0,97285.24,20.56,416.16,0,0.06,0.03,-0.13,15.85,6.65,17.87,65.85368,-24.7885,62.50817,3.30,4.87,12.05
9.66,2,0,0,97286.08,20.56,416.09,0,0.06,0.03,-0.14,15.85,6.65,18.23,66.33013,-24.3328,62.52629,3.30,4.87,12.00
9.68,2,0,0,97289.61,20.55,415.79,1,0.04,0.02,-0.15,15.85,6.52,18.05,67.07228,-23.6185,62.54663,3.30,4.86,11.94
9.71,2,0,0,97290.42,20.56,415.72,2,0.07,0.05,-0.13,15.79,6.22,17.87,67.54838,-23.1586,62.49205,3.30,4.87,11.88
9.73,2,0,0,97284.44,20.55,416.23,0,0.02,0.02,-0.12,15.91,6.22,18.35,68.00443,-22.7175,62.39144,3.30,4.87,11.99
9.75,2,0,0,97290.42,20.56,415.72,1,0.02,0.01,-0.14,16.04,5.79,17.62,68.48414,-22.2523,62.29991,3.30,4.87,12.13
9.77,2,0,0,97288.77,20.55,415.86,2,0.07,0.02,-0.15,15.85,5.67,17.68,68.96921,-21.7818,62.17799,3.30,4.87,11.92
9.79,2,0,0,97293.01,20.56,415.50,3,0.05,0.02,-0.15,16.04,5.49,18.29,69.45398,-21.3113,62.05152,3.30,4.85,12.17
9.81,2,0,0,97292.20,20.56,415.56,4,0.04,0.04,-0.12,15.37,5.24,18.11,69.94101,-20.8385,61.89388,3.30,4.87,12.07
9.83,2,0,0,97292.91,20.57,415.50,5,0.05,0.06,-0.15,15.79,5.30,18.05,70.43272,-20.3618,61.73173,3.30,4.87,12.20
9.85,2,0,0,97294.69,20.56,415.35,6,0.09,0.03,-0.14,15.67,5.18,17.87,71.17903,-19.6383,61.4472,3.30,4.87,12.18
9.88,2,0,0,97289.52,20.57,415.80,0,0.07,0.05,-0.15,15.49,5.30,18.35,71.62998,-19.2027,61.18253,3.30,4.87,12.18
9.90,2,0,0,97299.02,20.56,414.98,1,0.02,0.00,-0.17,15.61,4.76,17.74,72.11575,-18.736,60.94063,3.30,4.87,12.13
9.92,2,0,0,97299.02,20.56,414.98,2,0.06,0.05,-0.14,15.61,4.51,17.87,72.59874,-18.2721,60.6863,3.30,4.87,12.15
9.94,2,0,0,97301.61,20.56,414.76,3,0.07,0.03,-0.14,15.30,4.70,17.80,73.06797,-17.8233,60.38077,3.30,4.88,12.12
9.96,2,0,0,97301.61,20.56,414.76,4,0.04,0.00,-0.14,15.79,4.51,17.99,73.53909,-17.3751,60.06271,3.30,4.87,12.13
9.98,4,1,0,97302.45,20.57,414.68,5,0.04,0.04,-0.15,15.85,4.27,17.74,74.04974,-16.8942,59.75704,3.30,4.87,11.70
10.00,4,1,0,97311.97,20.56,413.87,6,0.05,0.03,-0.13,15.91,3.90,19.39,74.53785,-16.4356,59.44622,3.30,4.89,11.68
10.02,4,1,0,97308.44,20.57,414.17,7,0.07,0.06,-0.14,15.49,3.84,17.80,75.01788,-16.0419,59.03116,3.30,4.87,11.46
10.04,4,1,0,97302.45,20.57,414.68,0,-0.14,0.22,-2.06,20.18,-7.44,19.57,75.3914,-15.4656,58.94845,3.30,4.87,11.41
10.06,4,1,0,97415.50,20.56,404.98,1,-2.27,-3.15,-2.10,-3.96,52.20,18.60,75.86974,-15.122,59.64583,3.30,4.87,11.41
10.09,4,1,0,97570.81,20.56,391.67,2,-1.64,0.67,2.64,-5.73,-11.52,18.84,76.28255,-14.7943,58.92016,3.30,4.87,11.46
10.11,4,1,0,97482.80,20.56,399.21,3,-0.89,-0.95,-0.93,30.24,-5.98,17.07,76.70295,-14.4973,58.40125,3.30,4.86,10.81
10.13,4,1,0,97504.35,20.57,397.36,4,-0.51,-1.08,0.38,27.07,-12.62,17.50,77.19452,-14.1368,57.92793,3.30,4.87,11.23
10.15,4,1,0,97429.38,20.56,403.79,0,0.04,0.33,0.21,28.23,-11.10,18.72,77.72807,-13.6795,57.52867,3.30,4.87,11.49
10.17,4,1,0,97363.73,20.56,409.42,0,0.18,0.37,-0.50,17.62,-0.43,19.70,78.39742,-13.1351,56.75344,3.30,4.86,11.54
10.20,4,1,0,97355.13,20.56,413.05,0,-0.26,-0.10,-0.23,20.98,-0.98,20.43,78.90053,-12.7328,56.23955,3.30,4.87,11.52
10.22,4,1,0,97261.95,20.56,418.16,0,-0.04,0.03,-0.25,19.76,-2.80,20.61,79.50969,-12.2096,55.82829,3.30,4.86,11.26
10.24,4,1,0,97149.84,20.55,428.69,0,0.07,0.07,-0.13,17.44,2.62,22.99,80.10827,-11.7027,55.392,3.30,4.87,11.41
10.26,4,1,0,97061.84,20.55,435.37,0,0.00,0.12,-0.32,16.95,2.68,24.70,80.7061,-11.229,54.93785,3.30,4.87,11.39
10.28,4,1,0,97023.02,20.55,438.71,0,-0.13,0.05,-0.23,18.23,-1.22,27.32,81.7561,-10.4199,54.22545,3.30,4.87,11.38
10.31,4,1,0,97004.91,20.55,440.27,0,0.04,-0.04,-0.20,19.63,-3.90,29.15,82.43379,-9.9046,53.73238,3.30,4.87,11.34
10.33,4,1,0,96910.06,20.54,448.44,0,0.01,0.07,-0.25,19.39,-3.23,28.11,83.11055,-9.39491,53.30063,3.30,4.87,11.67
10.35,4,1,0,96908.20,20.56,448.60,0,-0.03,0.05,-0.24,16.89,-3.11,29.45,84.0512,-8.67485,53.05839,3.30,4.87,11.62
10.37,4,1,0,96872.92,20.55,450.52,0,0.02,0.18,-0.05,18.05,-4.15,39.09,85.00314,-7.91916,52.81922,3.30,4.87,11.68
10.39,4,1,0,96834.09,20.55,454.98,0,0.23,0.20,-0.30,12.80,0.61,40.61,85.91011,-7.19355,52.55397,3.30,4.87,11.68
10.41,4,1,0,96842.66,20.56,454.91,0,0.20,0.19,-0.38,11.77,2.68,39.09,86.9913,-6.33739,52.27574,3.30,4.87,11.59
10.43,4,1,0,96767.61,20.56,460.72,0,0.05,0.32,-0.17,14.39,2.44,46.46,87.99741,-5.56134,52.23988,3.30,4.87,11.67
10.45,4,1,0,96734.92,20.55,443.46,1,-0.23,0.14,0.20,8.90,-0.61,50.06,89.14583,-4.71631,52.06946,3.30,4.87,11.41
10.47,4,1,0,96892.67,20.56,449.93,0,-0.10,0.08,-0.45,7.50,-6.22,55.67,90.47843,-3.67808,51.93355,3.30,4.87,11.44
10.49,4,1,0,96941.13,20.54,448.21,1,0.19,-0.11,-0.14,7.93,0.79,62.20,92.14683,-2.42258,51.63508,3.30,4.86,11.65
10.52,4,1,0,97007.50,20.55,440.04,2,-0.20,-0.10,-0.21,7.32,-0.67,55.67,93.22803,-1.63002,51.32036,3.30,4.86,11.68
10.54,4,1,0,96967.00,20.54,447.32,0,0.15,0.03,-0.25,9.39,-3.17,48.54,94.03708,-1.04251,50.98379,3.30,4.87,11.63
10.56,4,1,0,96891.95,20.54,450.00,0,0.20,0.42,-0.33,10.30,-1.59,33.96,94.51519,-0.73119,50.64089,3.30,4.87,11.63
10.58,4,1,0,96844.45,20.55,452.30,0,0.18,0.21,-0.24,9.76,-4.02,17.50,94.71787,-0.6274,50.37284,3.30,4.86,11.57
10.60,4,1,0,96863.48,20.54,452.45,0,0.14,0.17,-0.26,6.16,-4.09,5.12,94.79963,-0.5935,50.05412,3.30,4.86,11.65
10.62,4,1,0,96868.66,20.54,452.00,0,0.12,0.15,-0.38,7.26,0.79,-0.18,94.66542,-0.67685,50.00661,3.30,4.87,11.60
10.64,4,1,0,96889.36,20.54,450.22,1,-0.10,0.15,-0.38,-2.74,4.21,-5.67,94.6141,-0.6749,49.85571,3.30,4.87,11.36
10.66,4,1,0,96859.14,20.55,452.82,0,0.21,-0.07,-0.22,2.38,7.68,-6.10,94.43968,-0.83429,49.43131,3.30,4.87,11.63
10.68,4,1,0,96857.50,20.54,452.96,0,0.01,-0.05,-0.12,10.98,3.23,-12.38,94.14606,-1.11515,49.00718,3.30,4.86,11.46
10.71,4,1,0,96873.83,20.54,451.56,0,-0.01,0.05,-0.31,5.49,-1.04,-11.95,93.88745,-1.34272,48.64689,3.30,4.87,11.39
10.73,4,1,0,96886.88,20.53,450.43,1,0.13,0.07,-0.42,8.54,0.24,-17.32,92.40232,-2.6353,48.04277,3.30,4.87,11.41
10.75,4,1,0,96886.05,20.52,450.50,2,-0.34,1.79,-0.91,18.35,-16.46,-75.12,89.68369,-5.23783,45.70191,3.30,4.86,11.28
10.77,4,1,0,96887.83,20.52,450.35,3,-0.57,0.60,1.76,83.54,-58.17,-155.43,84.88941,-8.96763,43.53999,3.30,4.87,11.50
10.80,4,1,0,96931.72,20.53,446.57,4,-2.03,1.50,2.04,38.90,-20.73,-167.93,81.49357,-11.3671,42.42843,3.30,4.87,11.44
10.82,4,1,0,96894.64,20.53,449.76,5,-2.65,0.67,0.34,13.23,-3.05,-170.49,78.06218,-13.6402,41.52664,3.29,4.87,11.49
10.84,4,1,0,96899.94,20.51,449.31,6,-2.11,0.29,-0.06,-5.79,11.40,-167.68,73.76704,-16.3703,40.31909,3.30,4.86,11.49
10.86,4,1,0,96909.34,20.52,448.50,7,-0.55,0.16,-0.09,-16.77,25.49,-208.90,68.9676,-19.4019,38.36704,3.30,4.87,11.60
10.88,4,1,0,96892.17,20.51,449.98,0,1.10,-0.19,-0.98,-5.55,18.11,-242.80,63.39547,-22.8329,35.79586,3.30,4.87,11.57
10.90,4,1,0,96949.11,20.51,445.07,1,1.40,0.45,-1.16,-5.18,17.01,-282.50,56.47181,-26.4872,32.15131,3.30,4.88,11.68
10.92,4,1,0,96958.63,20.51,444.25,2,3.23,-0.32,-2.67,-17.01,59.39,-352.26,48.50535,-29.7466,27.72641,3.30,4.87,11.63
10.94,4,1,0,96958.63,20.51,444.25,3,1.27,0.39,-0.80,-46.83,113.84,-407.74,40.85315,-32.519,23.30375,3.30,4.87,11.63
10.96,4,1,0,96967.22,20.51,443.51,4,-1.02,0.08,0.65,-40.61,85.37,-390.43,33.69391,-34.1676,19.25859,3.30,4.87,11.55
10.98,4,1,0,96996.63,20.50,440.98,5,-1.95,0.77,-6.62,-69.51,107.20,-365.49,24.61224,-36.7974,14.4501,3.30,4.87,11.46
11.01,4,1,0,97066.51,20.50,434.97,6,-1.85,-0.35,6.24,-63.23,35.00,-304.88,19.05204,-40.6138,11.18724,3.30,4.87,11.54
11.03,4,1,0,97070.73,20.51,434.60,7,-0.15,5.33,-4.41,16.10,-114.63,-272.62,13.98164,-42.7414,9.516728,3.30,4.87,11.49
11.05,4,1,0,97088.95,20.50,433.03,8,-2.01,3.99,-6.82,-209.57,-10.85,-251.71,9.610603,-43.7368,7.8895,3.30,4.87,11.31
11.07,4,1,0,97158.00,20.49,427.10,9,-1.84,2.28,-2.77,-188.84,18.41,-220.06,6.42483,-44.4918,6.585795,3.30,4.87,11.39
11.09,4,1,0,97201.99,20.49,423.31,10,0.20,2.80,2.80,-127.99,3.41,-161.22,4.55967,-45.9422,6.55324,3.30,4.86,11.54
11.11,4,1,0,97296.84,20.50,415.17,11,-0.97,1.85,-0.21,-183.84,-30.00,-100.18,5.149944,-47.2459,8.010667,3.30,4.87,11.63
11.13,4,1,0,97340.09,20.48,411.45,12,2.77,7.63,3.40,-153.48,-40.12,18.78,8.016511,-47.8557,13.08615,3.30,4.87,11.49
11.15,4,1,0,97552.33,20.48,393.25,13,5.56,16.00,-10.09,-429.70,11.16,131.46,9.790539,-47.0622,18.44687,3.30,4.87,11.62
11.17,4,1,0,97555.01,20.47,393.02,14,1.99,16.00,-16.00,-535.00,117.20,104.82,12.2273,-45.3176,28.04824,3.30,4.87,11.44
11.20,4,1,0,97509.36,20.46,402.04,15,1.10,4.67,-6.56,-579.63,172.56,132.20,10.57116,-43.3414,35.68582,3.30,4.87,11.25
11.22,4,1,0,97402.41,20.45,406.10,16,3.17,7.08,-13.98,-677.13,287.80,146.40,0.364431,-40.7509,43.9946,3.30,4.87,11.34
11.24,4,1,0,97304.06,20.45,414.55,0,1.13,0.44,-13.60,-649.70,301.77,182.80,-119.197,-33.8008,56.13065,3.30,4.87,11.18
11.27,4,1,0,97255.84,20.44,418.69,0,2.12,1.78,-15.31,-633.72,360.30,251.83,-129.56,-29.7216,58.59219,3.30,4.86,11.34
11.29,4,1,0,97267.84,20.45,417.66,0,3.34,4.15,-14.31,-624.27,466.40,203.72,-129.151,-26.7091,55.71956,3.30,4.87,11.41
11.31,4,1,0,97324.77,20.45,412.77,1,8.03,5.15,-16.00,-672.13,621.59,190.73,-127.385,-26.745,50.4456,3.30,4.86,11.60
11.33,4,1,0,97342.14,20.45,411.28,2,0.17,-0.72,-16.00,-645.67,740.98,118.11,-124.718,-28.4363,47.03877,3.30,4.87,11.62
11.35,4,1,0,97291.13,20.45,415.66,0,-4.94,-4.99,-11.72,-597.32,828.23,127.99,-122.935,-31.2793,46.30711,3.30,4.87,11.63
11.37,4,1,0,97238.63,20.45,420.17,0,-16.00,-13.65,-6.97,-420.79,722.13,87.93,-126.213,-37.2066,44.49748,3.30,4.87,11.65
11.39,4,1,0,97271.37,20.44,417.35,0,-16.00,-15.28,-0.85,-219.21,502.07,-136.83,-131.94,-44.0096,39.42023,3.30,4.87,11.59
11.41,4,1,0,97306.76,20.45,414.31,1,-9.24,-4.01,0.82,-206.40,308.84,-272.68,-139.585,-50.6309,31.37555,3.30,4.85,11.33
11.43,4,1,0,97336.06,20.44,411.80,2,-3.78,-2.63,-0.89,-84.51,11.52,-413.11,-148.09,-56.9557,22.3682,3.30,4.86,11.55
11.45,4,1,0,97353.34,20.43,410.32,3,-2.55,-8.00,2.15,-98.11,-2.99,-463.41,-162.14,-63.256,9.322536,3.30,4.87,11.62
11.48,4,1,0,97392.16,20.44,406.98,4,-3.19,-7.65,-1.41,45.12,-52.38,-488.54,-168.631,-63.9233,3.605973,3.30,4.87,11.60
11.50,4,1,0,97405.94,20.43,405.80,5,-2.06,-6.99,-1.21,79.82,-39.45,-335.37,-172.485,-63.2835,0.410925,3.30,4.87,11.59
11.52,4,1,0,97408.52,20.44,405.58,6,-3.43,-5.68,2.14,92.20,-31.89,-201.46,-174.405,-63.4741,-0.91816,3.30,4.87,11.46
11.54,4,1,0,97429.33,20.43,403.79,7,0.03,-1.76,0.39,61.16,5.18,-90.61,-173.383,-63.3518,0.628923,3.30,4.87,11.42
11.56,4,1,0,97443.08,20.43,402.62,8,0.37,-3.19,-0.15,124.09,-4.70,54.45,-171.108,-61.9966,3.372458,3.30,4.87,11.50
11.58,4,1,0,97441.42,20.43,402.76,9,-0.72,-3.28,-0.60,182.87,-41.71,106.89,-168.2,-59.8375,6.820967,3.30,4.87,11.36
11.60,4,1,0,97440.48,20.43,402.84,10,-1.70,-2.88,-0.78,224.27,-68.23,136.71,-165.567,-57.2438,10.1926,3.30,4.87,11.50
11.62,4,1,0,97443.08,20.43,402.62,11,-2.15,-2.14,-0.56,256.59,-93.41,123.90,-161.899,-53.2517,15.17943,3.30,4.87,11.60
11.65,4,1,0,97452.62,20.43,401.80,12,-1.22,-1.86,-0.96,262.62,-110.49,118.23,-159.437,-50.2629,18.67084,3.30,4.87,11.55
11.67,4,1,0,97461.19,20.43,401.06,13,-1.57,-1.59,-1.07,275.24,-139.39,123.23,-157.024,-46.838,22.33001,3.30,4.87,11.59
11.69,4,1,0,97453.42,20.43,401.73,14,-2.09,-1.38,-0.96,293.35,-177.26,127.56,-154.559,-42.8514,26.24444,3.30,4.87,11.47
11.71,4,1,0,97433.66,20.42,403.42,0,-1.90,0.78,-0.95,298.17,-218.48,143.29,-152.527,-38.4247,29.95782,3.30,4.86,11.47
11.73,4,1,0,97419.78,20.43,404.61,0,-1.66,1.52,-0.85,275.98,-257.99,145.91,-151.675,-32.2395,34.36324,3.30,4.86,11.38
11.76,4,1,0,97414.61,20.43,405.06,0,-0.41,3.50,-0.55,239.51,-283.66,113.29,-153.275,-28.9118,36.09322,3.30,4.87,11.33
11.78,4,1,0,97402.61,20.42,406.09,0,0.18,4.17,-0.19,184.09,-282.38,58.17,-156.96,-26.1878,36.69102,3.30,4.87,11.41
11.80,4,1,0,97418.13,20.42,404.76,0,1.22,4.78,-0.09,132.99,-274.45,11.77,-162.114,-23.6168,36.3539,3.30,4.87,11.46
11.82,4,1,0,97413.80,20.43,405.13,0,1.90,5.61,0.18,72.62,-258.48,-2.99,-167.65,-20.9404,35.24755,3.30,4.86,11.50
11.84,4,1,0,97417.20,20.43,403.28,1,2.45,5.29,0.40,6.40,-232.20,7.80,-172.574,-18.1101,33.65173,3.30,4.87,11.57
11.86,4,1,0,97460.38,20.43,401.13,2,2.80,4.47,0.43,-47.13,-206.65,31.04,-176.316,-15.3916,31.62378,3.30,4.87,11.62
11.88,4,1,0,97447.44,20.43,402.24,3,2.72,3.56,0.64,-93.17,-174.88,45.79,-179.048,-13.0054,29.291,3.30,4.87,11.55
11.90,4,1,0,97458.59,20.43,401.29,4,2.66,3.02,0.78,-124.76,-147.50,44.51,178.2176,-10.2902,25.27304,3.30,4.87,11.59
11.93,4,1,0,97466.36,20.43,399.95,5,2.64,2.70,0.76,-160.49,-113.72,26.65,176.7735,-9.13646,22.47966,3.30,4.86,11.54
11.95,4,1,0,97494.02,20.43,398.25,6,2.52,1.74,0.42,-181.16,-82.44,-5.12,175.1201,-8.64378,19.61891,3.30,4.87,11.47
11.97,4,1,0,97492.24,20.43,398.40,7,2.39,0.88,0.25,-193.29,-53.05,-52.07,172.7407,-8.66353,16.77415,3.30,4.87,11.47
11.99,4,1,0,97495.77,20.42,398.10,8,2.32,0.40,0.20,-194.94,-36.16,-109.02,169.356,-9.00801,13.89139,3.30,4.87,11.34
12.01,4,1,0,97506.13,20.42,397.21,9,2.21,0.11,0.29,-193.17,-28.17,-170.61,164.9383,-9.59798,10.96029,3.30,4.87,11.44
12.03,4,1,0,97509.55,20.43,396.92,10,1.98,-0.12,0.25,-190.18,-17.62,-233.66,159.3654,-10.1704,7.952906,3.30,4.87,11.44
12.05,4,1,0,97511.30,20.42,396.54,11,2.11,-0.40,0.36,-183.72,-19.51,-294.76,152.6723,-10.6835,4.882974,3.29,4.87,11.31
12.07,4,1,0,97521.55,20.44,395.89,12,1.95,-0.66,0.49,-171.77,-13.29,-355.24,145.0173,-10.9477,1.784382,3.29,4.87,11.44
12.09,4,1,0,97526.83,20.42,395.43,13,1.87,-0.77,0.38,-157.01,-10.73,-404.21,136.405,-10.7622,-1.32454,3.30,4.87,11.46
12.11,4,1,0,97526.83,20.42,395.43,14,2.05,-0.90,0.41,-142.07,-15.79,-449.94,122.0383,-9.49348,-5.87387,3.30,4.87,11.46
12.14,4,1,0,97541.52,20.42,394.18,15,1.88,-0.70,0.53,-127.50,-19.09,-497.74,111.4607,-7.86968,-8.70289,3.31,4.87,11.60
12.16,4,1,0,97549.18,20.43,393.52,16,1.72,-0.56,0.52,-113.48,-23.29,-543.54,99.91131,-5.54987,-11.1743,3.30,4.87,11.47
12.18,4,1,0,97553.55,20.43,393.14,17,1.62,-0.36,0.62,-100.06,-27.38,-590.00,81.13846,-0.86249,-13.8117,3.30,4.87,11.54
12.21,4,1,0,97558.81,20.41,392.69,18,1.41,0.33,0.58,-92.32,-34.21,-640.55,67.99061,2.851965,-14.5494,3.30,4.86,11.41
12.23,4,1,0,97563.05,20.42,392.33,19,1.30,0.42,0.62,-84.21,-39.88,-667.80,54.71636,6.771162,-14.354,3.30,4.86,11.28
12.25,4,1,0,97556.23,20.41,392.92,20,1.10,0.76,0.49,-82.50,-46.04,-673.96,41.56744,10.6779,-13.2337,3.30,4.87,11.39
12.27,4,1,0,97561.41,20.41,392.47,21,1.02,0.96,0.47,-81.71,-54.51,-667.80,28.7548,14.35756,-11.2957,3.31,4.87,11.44
12.29,4,1,0,97557.88,20.42,392.77,22,0.89,1.16,0.52,-82.13,-63.54,-651.46,16.3329,17.6648,-8.65297,3.30,4.87,11.39
12.31,4,1,0,97568.23,20.42,391.89,23,0.72,1.20,0.51,-80.91,-73.90,-632.74,4.267163,20.49813,-5.40132,3.30,4.87,11.44
12.33,4,1,0,97567.30,20.43,391.97,24,0.42,1.10,0.49,-77.13,-86.83,-616.34,-7.51166,22.76428,-1.61984,3.30,4.87,11.49
12.35,4,1,0,97565.64,20.42,392.11,25,0.10,1.20,0.54,-71.04,-101.77,-604.09,-24.7325,24.81796,4.83835,3.30,4.86,11.60
12.38,4,1,0,97552.70,20.42,393.22,0,0.12,1.27,0.53,-63.48,-118.23,-594.27,-36.168,25.06653,9.628931,3.30,4.87,11.52
12.40,4,1,0,97564.70,20.43,392.19,1,0.19,1.18,0.54,-51.04,-130.61,-591.40,-47.4567,24.30469,14.64855,3.30,4.87,11.42
12.42,4,1,0,97563.90,20.43,392.26,2,0.23,1.09,0.55,-36.52,-138.84,-585.49,-58.6245,22.51547,19.80925,3.30,4.87,11.44
12.44,4,1,0,97553.55,20.43,392.48,3,0.39,1.24,0.61,-18.35,-146.10,-581.46,-69.8359,19.59678,24.97356,3.30,4.86,11.33
12.46,4,1,0,97563.05,20.42,392.33,4,0.61,1.08,0.60,-0.30,-146.28,-584.94,-81.2338,15.47671,29.93492,3.30,4.87,11.42
12.48,4,1,0,97563.05,20.42,393.22,0,0.71,1.12,0.69,20.00,-138.48,-595.37,-92.8813,10.22977,34.24161,3.30,4.87,11.46
12.50,4,1,0,97556.13,20.43,392.92,0,0.71,1.34,0.79,35.00,-127.13,-606.34,-104.722,4.094305,37.39578,3.30,4.87,11.47
12.52,4,1,0,97559.53,20.43,391.75,1,0.58,1.47,0.86,48.05,-115.00,-613.54,-122.582,-6.03704,38.86644,3.30,4.88,11.59
12.55,4,1,0,97569.08,20.43,391.81,2,0.48,1.62,0.94,57.62,-97.87,-612.44,-134.773,-13.0635,37.35084,3.30,4.87,11.60
12.57,4,1,0,97573.41,20.42,391.44,3,0.28,1.72,1.00,61.77,-84.82,-611.83,-147.186,-19.9708,33.89226,3.29,4.87,11.57
12.59,4,1,0,97582.91,20.42,390.63,4,0.18,1.90,0.99,59.15,-71.71,-612.80,-159.738,-26.399,28.84301,3.30,4.87,11.57
12.61,4,1,0,97594.11,20.42,390.56,5,0.00,1.89,0.90,52.87,-57.99,-611.40,-172.443,-31.9412,22.63232,3.30,4.87,11.60
12.63,4,1,0,97588.09,20.42,390.18,6,-0.35,1.73,0.87,46.04,-48.96,-611.16,174.6623,-36.1311,15.63329,3.30,4.87,11.46
12.65,4,1,0,97582.11,20.41,390.03,7,-0.57,1.79,0.87,38.05,-44.82,-613.23,161.6524,-38.4841,8.215418,3.30,4.87,11.57
12.67,4,1,0,97603.63,20.42,388.85,8,-0.75,1.67,0.79,28.78,-44.33,-613.66,142.3395,-38.0277,-2.79917,3.30,4.87,11.60
12.70,4,1,0,97603.63,20.42,388.85,9,-1.01,1.44,0.74,20.43,-48.11,-607.13,129.5638,-35.2374,-9.6945,3.29,4.87,11.31
12.72,4,1,0,97606.30,20.40,388.63,10,-1.20,1.15,0.69,17.56,-55.73,-599.15,117.0429,-30.908,-15.8139,3.30,4.87,11.33
12.74,4,1,0,97614.81,20.42,387.90,11,-1.32,0.83,0.65,19.76,-65.43,-587.13,104.8656,-25.5863,-20.8864,3.30,4.85,11.26
12.76,4,1,0,97616.66,20.40,387.74,12,-1.35,0.64,0.63,25.49,-74.15,-572.80,93.04665,-19.7301,-24.6989,3.29,4.87,11.23
12.78,4,1,0,97621.83,20.40,387.30,13,-1.16,0.35,0.56,35.18,-81.16,-558.60,76.10707,-10.7402,-27.8962,3.30,4.87,11.25
12.81,4,1,0,97639.04,20.41,385.82,14,-1.11,0.20,0.52,46.59,-84.51,-542.99,65.30395,-4.88824,-28.3227,3.30,4.87,11.42
12.83,4,1,0,97633.02,20.41,386.34,15,-0.97,0.07,0.52,59.82,-86.65,-524.94,54.89284,0.594203,-27.458,3.30,4.87,11.44
12.85,4,1,0,97633.87,20.41,386.26,16,-0.76,-0.02,0.44,73.72,-82.13,-509.33,44.80847,5.605823,-25.5018,3.30,4.87,11.46
12.87,4,1,0,97644.22,20.41,385.38,17,-0.67,-0.06,0.47,86.77,-75.55,-496.65,34.98122,10.05741,-22.6679,3.30,4.86,11.46
12.89,4,1,0,97642.53,20.40,385.52,18,-0.56,-0.04,0.44,98.90,-66.59,-486.89,25.31914,13.88417,-19.183,3.30,4.87,11.44
12.91,4,1,0,97642.53,20.40,385.52,19,-0.44,0.02,0.43,106.89,-55.18,-481.52,15.7205,17.01029,-15.1996,3.30,4.87,11.49
12.93,4,1,0,97651.23,20.39,384.78,20,-0.34,0.10,0.40,113.29,-41.71,-480.18,6.159909,19.36752,-10.8932,3.30,4.87,11.47
12.95,4,1,0,97660.65,20.40,383.97,21,-0.25,0.30,0.48,114.63,-27.93,-479.63,-3.38724,20.86373,-6.40902,3.29,4.85,11.46
12.97,4,1,0,97658.06,20.40,384.19,22,-0.18,0.38,0.51,112.56,-12.56,-479.57,-12.9405,21.46582,-1.89222,3.30,4.87,11.62
12.99,4,0,1,97662.42,20.40,383.82,23,-0.26,0.54,0.56,105.73,1.71,-480.18,-27.1944,20.80633,4.707242,3.30,4.87,12.15
13.02,4,0,1,97666.76,20.39,383.45,24,-0.37,0.66,0.57,96.71,12.50,-479.94,-36.7523,19.36321,8.867746,3.30,4.87,11.73
13.04,4,0,1,97668.50,20.39,383.30,25,-0.44,0.68,0.59,84.45,21.65,-481.16,-46.3255,17.21594,12.67026,3.30,4.87,11.86
13.06,4,0,1,97677.11,20.39,382.56,26,-0.67,0.81,0.68,71.04,25.91,-481.28,-55.8774,14.51,15.99919,3.30,4.86,11.96
13.08,4,0,1,97674.52,20.39,382.78,27,-0.80,0.79,0.69,57.26,25.37,-479.57,-65.3435,11.39747,18.745,3.29,4.87,11.84
13.10,4,0,1,97681.44,20.39,382.19,28,-0.95,0.81,0.71,43.90,21.65,-474.51,-74.623,8.068075,20.83693,3.30,4.87,11.91
13.12,4,0,1,97683.22,20.38,381.82,29,-1.05,0.80,0.70,32.56,13.41,-464.51,-83.5689,4.714716,22.223,3.30,4.87,11.84
13.14,4,0,1,97686.71,20.37,381.74,30,-1.18,0.79,0.72,22.07,2.20,-447.07,-92.1155,1.470614,22.9768,3.30,4.87,11.81
13.16,4,0,1,97680.63,20.38,382.04,31,-1.24,0.69,0.69,16.89,-9.27,-426.59,-104.231,-3.02156,23.09163,3.30,4.87,12.13
13.19,4,0,1,97690.98,20.38,381.37,32,-1.22,0.57,0.69,13.66,-24.02,-403.23,-111.753,-5.60314,22.62231,3.30,4.87,12.13
13.21,4,0,1,97692.64,20.39,381.23,33,-1.29,0.52,0.71,12.62,-42.32,-373.54,-118.843,-7.82679,21.88274,3.30,4.87,11.96
13.23,4,0,1,97701.34,20.38,380.49,34,-1.32,0.45,0.65,15.98,-55.06,-350.91,-128.907,-10.5323,20.42119,3.30,4.87,11.91
13.26,4,0,1,97700.48,20.38,380.56,35,-1.42,0.40,0.67,20.79,-70.06,-330.24,-135.267,-11.9133,19.34694,3.30,4.85,11.92
13.28,4,0,1,97706.51,20.38,380.05,36,-1.44,0.35,0.62,28.84,-83.96,-309.51,-141.299,-12.9175,18.30104,3.30,4.86,11.49
13.30,4,0,1,97709.91,20.39,379.75,37,-1.43,0.38,0.62,37.07,-96.77,-289.57,-147.015,-13.5814,17.33841,3.30,4.87,11.78
13.32,4,0,1,97710.84,20.38,379.67,38,-1.36,0.40,0.57,44.82,-107.13,-269.33,-152.47,-13.9351,16.51199,3.29,4.87,11.84
13.34,4,0,1,97716.02,20.38,379.23,39,-1.28,0.45,0.49,53.84,-117.68,-250.67,-157.707,-14.0165,15.82982,3.30,4.87,11.78
13.36,4,0,1,97717.67,20.39,379.09,40,-1.14,0.59,0.47,60.49,-126.71,-232.74,-162.808,-13.8908,15.29631,3.30,4.87,11.79
13.38,4,0,1,97722.04,20.38,378.72,41,-1.05,0.67,0.42,66.71,-133.41,-217.87,-167.891,-13.6076,14.87546,3.30,4.88,11.92
13.40,4,0,1,97716.86,20.38,379.16,42,-1.02,0.80,0.40,70.37,-139.09,-207.50,-173.027,-13.2017,14.55491,3.30,4.87,11.83
13.42,4,0,1,97724.63,20.38,378.49,43,-1.01,0.87,0.36,73.35,-144.21,-199.57,-178.331,-12.7018,14.32418,3.30,4.87,11.99
13.44,4,0,1,97724.63,20.38,378.49,44,-0.97,1.00,0.35,76.59,-149.88,-196.34,173.2228,-11.86,14.05493,3.30,4.87,11.97
13.47,4,0,1,97732.39,20.38,377.83,45,-0.90,1.30,0.43,76.77,-155.00,-198.90,167.2012,-11.2999,13.88968,3.30,4.87,11.96
13.49,4,0,1,97724.63,20.38,378.49,46,-0.74,1.41,0.33,75.24,-157.20,-206.83,160.8198,-10.7657,13.69047,3.30,4.87,11.92
13.51,4,0,1,97725.53,20.37,378.42,47,-0.62,1.51,0.32,71.83,-158.66,-218.66,154.1164,-10.2876,13.45618,3.30,4.87,11.88
13.53,4,0,1,97731.55,20.38,377.90,48,-0.51,1.60,0.34,68.90,-157.99,-232.93,147.1105,-9.87114,13.20277,3.30,4.87,11.76
13.55,4,0,1,97735.88,20.37,377.53,49,-0.57,1.59,0.36,68.23,-157.87,-248.78,139.8871,-9.50768,12.92551,3.30,4.87,11.86
13.57,4,0,1,97742.74,20.38,376.94,50,-0.68,1.69,0.46,67.07,-157.62,-263.96,132.4898,-9.18488,12.61239,3.30,4.87,11.75
13.59,4,0,1,97736.72,20.38,377.46,51,-0.68,1.64,0.37,65.30,-158.17,-280.12,125.0027,-8.91689,12.29981,3.29,4.87,11.88
13.61,4,0,1,97746.23,20.37,376.65,52,-0.58,1.46,0.35,66.16,-156.16,-294.63,117.4312,-8.6814,12.00395,3.30,4.87,11.89
13.63,4,0,1,97752.34,20.36,376.12,53,-0.62,1.41,0.44,68.96,-156.34,-308.96,109.7736,-8.48268,11.74531,3.30,4.87,11.89
13.65,4,0,1,97763.53,20.37,375.17,54,-0.54,1.58,0.50,73.72,-155.85,-323.96,98.33263,-8.29885,11.38438,3.30,4.87,11.89
13.68,4,0,1,97771.30,20.37,374.50,55,-0.41,1.56,0.44,76.52,-150.67,-338.66,90.54374,-8.30858,11.16781,3.29,4.88,11.83
13.70,4,0,1,97761.75,20.37,375.10,56,-0.51,1.39,0.57,82.62,-143.11,-358.90,82.64601,-8.39607,10.95268,3.30,4.87,11.81
13.72,4,0,1,97775.63,20.36,374.13,57,-0.40,1.42,0.53,86.95,-138.23,-373.72,70.69794,-8.69958,10.59218,3.30,4.87,11.76
13.75,4,0,1,97773.97,20.35,373.83,58,-0.31,1.43,0.46,90.43,-128.29,-387.80,62.56555,-9.02835,10.31027,3.30,4.86,11.70
13.77,4,0,1,97784.33,20.35,373.39,59,-0.32,1.31,0.46,94.39,-117.01,-402.13,54.19202,-9.49814,9.959096,3.30,4.87,11.75
13.79,4,0,1,97786.91,20.35,373.17,60,-0.35,1.11,0.52,97.56,-104.63,-417.62,45.52624,-10.0753,9.522673,3.30,4.87,11.79
13.81,4,0,1,97784.33,20.35,373.39,61,-0.41,1.32,0.64,102.07,-94.27,-434.51,36.51763,-10.7593,8.913016,3.30,4.87,11.86
13.83,4,0,1,97798.16,20.34,372.20,62,-0.30,1.25,0.59,100.85,-81.28,-452.93,27.20767,-11.5506,8.139705,3.30,4.87,11.92
13.85,4,0,1,97804.19,20.35,371.69,63,-0.34,1.21,0.57,101.59,-65.00,-468.17,17.56962,-12.3503,7.113244,3.30,4.87,11.91
13.87,4,0,1,97811.02,20.36,371.10,64,-0.56,1.27,0.70,95.91,-53.84,-483.60,7.648736,-13.087,5.842478,3.30,4.86,11.91
13.89,4,0,1,97805.92,20.34,371.54,65,-0.55,1.19,0.67,89.88,-42.99,-496.34,-2.50263,-13.7003,4.346522,3.30,4.87,11.91
13.91,4,0,1,97803.34,20.34,371.76,66,-0.74,1.15,0.72,83.35,-32.87,-506.10,-17.9431,-14.1317,1.787346,3.30,4.87,11.94
13.94,4,0,1,97822.30,20.35,370.14,67,-0.89,0.98,0.79,74.02,-28.17,-511.65,-28.2993,-14.0288,-0.0064,3.30,4.87,11.96
13.96,4,0,1,97821.45,20.34,370.21,68,-0.93,0.91,0.79,66.59,-25.49,-509.88,-38.5712,-13.5979,-1.79108,3.30,4.87,11.92
13.98,4,0,1,97817.20,20.33,370.58,69,-0.87,0.71,0.77,59.27,-24.76,-503.78,-48.7019,-12.8618,-3.48142,3.30,4.87,11.92
14.00,4,0,1,97826.63,20.34,369.77,70,-0.88,0.65,0.80,54.15,-24.21,-495.49,-58.6608,-11.862,-5.02349,3.30,4.87,11.91
14.02,4,0,1,97830.14,20.33,369.47,71,-0.74,0.43,0.72,49.88,-23.72,-486.46,-68.4583,-10.6253,-6.36166,3.30,4.87,11.97
14.04,4,0,1,97836.16,20.34,368.95,72,-0.74,0.42,0.69,47.74,-24.76,-478.11,-78.071,-9.18163,-7.46172,3.30,4.87,12.17
14.06,4,0,1,97833.58,20.34,369.18,73,-0.79,0.41,0.81,45.67,-27.87,-469.21,-87.4743,-7.61405,-8.28971,3.30,4.87,12.02
14.08,4,0,1,97843.93,20.34,368.29,74,-0.69,0.34,0.73,45.18,-28.48,-459.63,-96.6621,-5.96907,-8.85068,3.30,4.87,12.10
14.10,4,0,1,97844.83,20.33,368.21,75,-0.64,0.25,0.63,44.09,-29.76,-450.49,-110.119,-3.45,-9.14694,3.30,4.87,12.04
14.13,4,0,1,97841.43,20.34,368.50,76,-0.56,0.16,0.65,46.16,-30.85,-442.44,-118.925,-1.78651,-8.98769,3.30,4.87,12.13
14.15,4,0,1,97846.60,20.32,368.06,77,-0.49,0.13,0.69,48.72,-32.01,-434.94,-127.555,-0.20887,-8.55547,3.30,4.87,12.15
14.17,4,0,1,97858.61,20.34,367.04,78,-0.35,0.15,0.71,50.79,-30.43,-427.38,-136.043,1.249662,-7.88151,3.30,4.87,12.15
14.19,4,0,1,97851.78,20.32,367.62,79,-0.24,0.16,0.74,52.50,-28.41,-421.40,-148.602,3.108522,-6.48183,3.30,4.87,12.17
14.22,4,0,1,97856.95,20.32,367.18,80,-0.15,0.20,0.85,54.76,-22.26,-417.44,-157.008,4.12569,-5.34831,3.30,4.86,11.96
14.24,4,0,1,97864.72,20.32,366.51,81,0.01,0.34,0.85,54.21,-16.83,-419.09,-165.51,4.916502,-4.11014,3.30,4.86,11.88
14.26,4,0,1,97869.89,20.32,366.07,82,0.07,0.58,0.91,51.28,-10.12,-424.27,-174.168,5.471359,-2.83692,3.30,4.88,11.86
14.28,4,0,1,97862.13,20.32,366.74,83,-0.01,0.78,0.92,43.96,-4.33,-432.56,177.0327,5.805165,-1.58667,3.30,4.87,11.88
14.30,4,0,1,97873.38,20.31,365.77,84,-0.20,0.91,0.93,34.09,-1.28,-440.00,168.1123,5.956958,-0.39519,3.31,4.85,11.86
14.32,4,0,1,97872.48,20.32,365.85,85,-0.46,1.01,0.93,23.72,-2.20,-446.40,159.1519,5.99377,0.706069,3.30,4.86,12.12
14.34,4,0,1,97873.30,20.33,365.78,86,-0.75,1.01,1.01,13.29,-9.09,-448.78,150.2611,5.955283,1.721291,3.30,4.87,12.13
14.36,4,0,1,97875.88,20.33,365.56,87,-0.81,0.82,0.87,5.67,-18.23,-445.55,137.2259,5.801358,3.148976,3.30,4.87,12.02
14.39,4,0,1,97883.64,20.33,364.90,88,-0.91,0.69,0.85,2.80,-30.24,-436.89,128.7643,5.661574,4.043102,3.32,4.87,12.13
14.41,4,0,1,97886.23,20.33,364.67,89,-0.99,0.68,0.78,1.40,-42.62,-424.70,120.5868,5.531304,4.90395,3.30,4.87,12.17
14.43,4,0,1,97888.01,20.32,364.52,90,-0.93,0.56,0.77,2.56,-54.39,-410.91,112.6771,5.399884,5.785725,3.30,4.87,12.17
14.45,4,0,1,97887.08,20.33,364.60,91,-0.79,0.39,0.70,8.72,-64.33,-398.23,104.9865,5.256231,6.701626,3.30,4.87,12.17
14.47,4,0,1,97894.84,20.33,363.94,92,-0.73,0.38,0.71,15.12,-73.17,-387.99,97.50836,5.065228,7.677414,3.30,4.87,12.17
14.49,4,0,1,97894.84,20.33,363.94,93,-0.60,0.29,0.64,24.33,-78.66,-378.29,90.20856,4.806865,8.719333,3.30,4.87,12.05
14.51,4,0,1,97892.25,20.33,364.16,94,-0.59,0.32,0.60,33.72,-82.74,-370.30,83.04884,4.448517,9.830982,3.30,4.88,12.02
14.53,4,0,1,97895.77,20.32,363.86,95,-0.50,0.27,0.58,44.21,-84.63,-364.33,76.00367,3.948608,10.99774,3.29,4.87,11.81
14.55,4,0,1,97905.19,20.33,363.06,96,-0.42,0.22,0.59,54.45,-83.23,-359.57,69.03108,3.282521,12.21078,3.30,4.87,11.86
14.57,4,0,1,97911.22,20.34,362.54,97,-0.34,0.26,0.62,64.33,-80.55,-356.89,58.65559,1.914454,14.02428,3.30,4.87,11.88
14.60,4,0,1,97907.78,20.33,362.83,98,-0.15,0.27,0.65,74.27,-74.51,-355.30,51.71371,0.719908,15.20529,3.30,4.87,11.89
14.62,4,0,1,97900.95,20.32,363.42,99,-0.07,0.40,0.69,82.13,-65.98,-356.83,44.74371,-0.72676,16.30827,3.30,4.87,11.89
14.64,4,0,1,97915.55,20.33,362.17,100,-0.02,0.48,0.63,86.22,-54.45,-360.37,37.71551,-2.46565,17.26446,3.30,4.87,11.89
14.66,4,0,1,97914.70,20.33,362.24,101,-0.02,0.56,0.78,90.06,-40.79,-365.24,30.58304,-4.48238,17.95612,3.30,4.87,11.89
14.68,4,0,1,97909.52,20.33,362.68,102,-0.15,0.72,0.78,88.60,-29.88,-369.70,19.75112,-7.9078,18.33187,3.31,4.87,11.92
14.71,4,0,1,97915.55,20.33,362.17,103,-0.23,0.94,0.77,82.74,-15.55,-374.39,12.43582,-10.3261,18.06626,3.30,4.87,11.75
14.73,4,0,1,97925.05,20.33,361.36,104,-0.30,0.99,0.73,73.90,-6.89,-375.73,5.040556,-12.7966,17.33047,3.30,4.86,11.78
14.75,4,0,1,97930.31,20.31,360.91,105,-0.52,1.01,0.76,64.15,-0.49,-377.44,-2.46205,-15.2137,16.11455,3.30,4.87,11.63
14.77,4,0,1,97919.06,20.32,361.87,106,-0.79,0.92,0.78,54.33,1.83,-379.02,-10.0789,-17.4324,14.45464,3.30,4.86,11.68
14.79,4,0,1,97934.59,20.32,360.54,107,-0.87,0.86,0.74,44.57,-0.37,-379.70,-17.7761,-19.3566,12.41851,3.29,4.87,11.81
14.81,4,0,1,97929.41,20.32,360.99,108,-1.00,0.80,0.80,36.04,-4.21,-378.72,-29.3814,-21.5281,8.863878,3.30,4.87,11.92
14.84,4,0,1,97932.00,20.32,360.76,109,-1.05,0.71,0.78,28.05,-10.06,-376.10,-37.1028,-22.4417,6.29825,3.30,4.87,11.94
14.86,4,0,1,97940.58,20.33,360.03,110,-1.09,0.53,0.78,23.23,-15.98,-370.49,-44.7451,-22.8388,3.681216,3.30,4.89,11.91
14.88,4,0,1,97944.01,20.33,359.74,111,-1.08,0.42,0.74,19.33,-24.82,-362.74,-52.232,-22.7568,1.132253,3.29,4.87,11.91
14.90,4,0,1,97950.11,20.32,359.22,112,-1.09,0.42,0.73,18.17,-31.71,-352.80,-59.5433,-22.1929,-1.28952,3.30,4.87,11.91
14.92,4,0,1,97950.11,20.32,359.22,113,-1.07,0.22,0.80,17.74,-42.07,-341.65,-66.5954,-21.2665,-3.5027,3.30,4.87,11.89
14.94,4,0,1,97954.36,20.33,358.85,114,-0.91,0.01,0.74,20.06,-48.11,-328.05,-73.3385,-20.0651,-5.43228,3.30,4.88,11.92
14.96,4,0,1,97969.13,20.31,357.59,115,-0.74,-0.10,0.67,25.12,-52.44,-311.83,-79.7714,-18.6581,-7.06291,3.30,4.87,11.91
14.98,4,0,1,97970.81,20.32,357.45,116,-0.60,-0.23,0.69,32.38,-55.30,-294.57,-85.9358,-17.1036,-8.37853,3.30,4.87,11.89
15.00,4,0,1,97976.08,20.31,357.00,117,-0.46,-0.36,0.68,40.30,-56.10,-279.45,-91.889,-15.4883,-9.37253,3.29,4.87,11.91
15.02,4,0,1,97977.73,20.32,356.86,118,-0.35,-0.32,0.67,49.15,-54.33,-267.68,-100.479,-13.0522,-10.3799,3.30,4.87,11.94
15.05,4,0,1,97979.48,20.31,356.71,119,-0.23,-0.30,0.65,55.49,-51.04,-258.23,-106.065,-11.4766,-10.7596,3.30,4.87,11.88
15.07,4,0,1,97984.66,20.31,356.27,120,-0.02,-0.31,0.64,62.56,-45.37,-252.26,-111.611,-9.98689,-10.9332,3.30,4.87,11.88
15.09,4,0,1,97984.66,20.31,356.27,121,0.14,-0.27,0.65,68.29,-37.62,-250.67,-117.171,-8.60061,-10.9337,3.29,4.87,11.94
15.11,4,0,1,97991.52,20.32,355.68,122,0.27,-0.23,0.65,73.23,-28.54,-251.71,-122.797,-7.3348,-10.8021,3.30,4.86,11.94
15.13,4,0,1,97994.19,20.31,355.45,123,0.34,-0.16,0.68,75.85,-17.80,-255.61,-128.529,-6.18837,-10.5671,3.30,4.87,11.94
15.15,4,0,1,98001.95,20.31,354.79,124,0.35,-0.07,0.68,76.83,-7.13,-261.71,-134.385,-5.17007,-10.2619,3.30,4.87,11.94
15.17,4,0,1,98002.84,20.30,354.71,125,0.36,0.01,0.70,75.61,4.15,-268.84,-143.509,-3.86822,-9.75475,3.30,4.87,11.94
15.20,4,0,1,98008.88,20.30,354.20,126,0.35,0.14,0.71,70.43,18.05,-281.83,-149.768,-3.12801,-9.39622,3.30,4.86,11.78
15.22,4,0,1,98012.39,20.29,353.90,127,0.40,0.23,0.73,64.33,28.84,-292.01,-156.225,-2.49208,-9.07417,3.30,4.87,11.78
15.24,4,0,1,98023.55,20.30,352.95,128,0.41,0.38,0.74,55.24,38.29,-302.99,-162.859,-1.95577,-8.82775,3.30,4.85,11.79
15.26,4,0,1,98024.40,20.30,352.87,129,0.45,0.42,0.78,43.17,47.80,-312.50,-169.641,-1.50308,-8.66552,3.30,4.87,11.79
15.28,4,0,1,98024.48,20.29,352.87,130,0.33,0.58,0.83,30.12,55.12,-320.30,-179.965,-0.87221,-8.59463,3.30,4.87,11.78
15.31,4,0,1,98036.48,20.30,351.84,131,0.23,0.66,0.82,13.48,58.17,-326.89,173.0501,-0.46731,-8.6658,3.30,4.87,11.88
15.33,4,0,1,98029.58,20.30,352.43,132,0.17,0.65,0.79,-3.41,60.67,-331.46,165.9809,-0.0221,-8.85029,3.30,4.87,11.89
15.35,4,0,1,98033.91,20.30,352.06,133,0.05,0.57,0.80,-18.90,58.72,-335.67,158.8562,0.510759,-9.12863,3.30,4.87,11.89
15.37,4,0,1,98035.67,20.29,351.91,134,-0.02,0.54,0.85,-33.23,53.11,-338.54,151.7389,1.154017,-9.47834,3.30,4.87,11.88
15.39,4,0,1,98038.27,20.29,351.69,135,-0.12,0.47,0.84,-46.34,45.00,-338.05,144.6173,1.934491,-9.86512,3.30,4.87,11.89
15.41,4,0,1,98039.08,20.30,351.62,136,-0.12,0.30,0.80,-57.44,35.43,-337.80,137.539,2.855152,-10.2278,3.30,4.87,11.89
15.43,4,0,1,98043.44,20.29,351.25,137,-0.12,0.14,0.84,-63.96,24.82,-335.37,130.4914,3.929999,-10.5241,3.30,4.87,11.94
15.45,4,0,1,98051.20,20.29,350.59,138,-0.02,0.06,0.88,-68.35,13.72,-333.41,119.9597,5.762878,-10.7428,3.29,4.87,11.92
15.48,4,0,1,98045.10,20.30,351.11,139,0.10,0.03,0.89,-69.76,3.48,-331.40,112.9015,7.100653,-10.717,3.30,4.87,11.96
15.50,4,0,1,98048.62,20.29,350.81,140,0.18,0.01,0.88,-70.67,-5.24,-330.91,105.8023,8.525446,-10.5069,3.30,4.87,11.94
15.52,4,0,1,98054.60,20.30,350.30,141,0.28,-0.14,0.91,-68.54,-12.26,-331.95,98.63251,10.00893,-10.0815,3.30,4.87,11.96
15.54,4,0,1,98056.38,20.29,350.15,142,0.35,-0.11,0.99,-65.18,-19.27,-335.00,91.33714,11.53451,-9.41433,3.30,4.88,11.96
15.56,4,0,1,98051.20,20.29,350.59,143,0.44,-0.14,0.94,-60.67,-24.82,-340.55,83.8954,13.0424,-8.46045,3.30,4.87,11.92
15.58,4,0,1,98053.79,20.29,350.37,144,0.49,-0.18,1.01,-54.09,-28.96,-348.35,76.27884,14.4876,-7.19838,3.30,4.87,11.89
15.60,4,0,1,98068.39,20.30,349.12,145,0.56,-0.07,0.97,-46.34,-32.20,-358.05,68.4613,15.80977,-5.6529,3.30,4.87,11.91
15.62,4,0,1,98074.49,20.29,348.60,146,0.65,-0.01,0.96,-40.73,-33.78,-368.23,60.45579,16.934,-3.8254,3.30,4.87,11.88
15.64,4,0,1,98076.16,20.30,348.46,147,0.75,0.02,1.03,-34.27,-33.84,-378.60,52.23818,17.77097,-1.76335,3.30,4.86,11.89
15.66,4,0,1,98071.91,20.29,348.82,148,0.75,0.19,0.92,-31.16,-31.46,-389.82,39.69693,18.37723,1.638018,3.30,4.88,11.89
15.69,4,0,1,98086.50,20.30,347.57,149,0.75,0.38,0.91,-27.38,-29.15,-399.21,31.12965,18.2891,4.032746,3.30,4.87,11.89
15.71,4,0,1,98094.27,20.30,346.91,150,0.66,0.56,0.96,-26.52,-27.01,-409.94,22.47363,17.78741,6.421835,3.30,4.86,11.79
15.73,4,0,1,98090.02,20.29,347.27,151,0.44,0.78,0.92,-27.56,-25.91,-415.49,9.319849,16.37394,9.834551,3.30,4.87,11.78
15.76,4,0,1,98112.38,20.30,345.37,152,0.21,0.89,0.96,-30.73,-29.88,-421.83,0.43407,15.02504,11.92158,3.30,4.87,11.76
15.78,4,0,1,98101.19,20.30,346.32,153,0.13,0.79,0.91,-33.72,-34.51,-427.01,-8.54719,13.41798,13.8219,3.30,4.88,11.62
15.80,4,0,1,98110.72,20.29,345.51,154,-0.06,0.77,0.96,-33.41,-41.52,-431.71,-17.6288,11.59855,15.48379,3.30,4.85,11.60
15.82,4,0,1,98116.71,20.30,345.00,155,-0.13,0.67,0.83,-34.21,-49.63,-436.59,-26.7288,9.61949,16.90078,3.30,4.86,11.73
15.84,4,0,1,98115.89,20.29,345.07,156,-0.27,0.65,0.82,-30.24,-57.01,-437.87,-35.8542,7.537077,18.06285,3.30,4.87,11.75
15.86,4,0,1,98117.55,20.30,344.93,157,-0.35,0.47,0.81,-23.90,-66.04,-439.27,-44.9624,5.389096,18.97646,3.30,4.87,11.91
15.88,4,0,1,98124.39,20.31,344.34,158,-0.41,0.51,0.80,-15.98,-73.72,-438.35,-54.0227,3.195554,19.64509,3.30,4.87,11.92
15.90,4,0,1,98128.76,20.31,343.97,159,-0.35,0.38,0.74,-5.37,-79.09,-436.59,-67.3784,-0.1174,20.12395,3.30,4.87,11.89
15.93,4,0,1,98134.75,20.31,343.46,160,-0.36,0.34,0.67,4.76,-82.87,-431.71,-76.1409,-2.30847,20.10901,3.30,4.88,11.89
15.95,4,0,1,98134.75,20.31,343.46,161,-0.22,0.32,0.73,17.13,-83.48,-426.16,-84.7074,-4.44847,19.86281,3.30,4.87,11.89
15.97,4,0,1,98134.75,20.31,343.46,162,-0.14,0.31,0.69,27.93,-80.49,-418.41,-93.1355,-6.54635,19.41663,3.30,4.87,11.89
15.99,4,0,1,98145.17,20.30,342.57,163,-0.14,0.29,0.71,39.09,-75.98,-413.05,-101.443,-8.59225,18.78146,3.30,4.87,12.15
16.01,4,0,1,98144.28,20.31,342.65,164,-0.02,0.29,0.73,48.84,-69.33,-409.82,-109.691,-10.6228,17.96083,3.30,4.87,12.12
16.03,4,0,1,98152.94,20.30,341.91,165,0.05,0.45,0.74,56.34,-60.12,-409.39,-117.974,-12.6606,16.88549,3.30,4.86,11.86
16.05,4,0,1,98152.05,20.31,340.88,166,0.02,0.42,0.71,61.46,-50.12,-412.38,-130.485,-15.601,14.73865,3.30,4.87,11.97
16.08,4,0,1,98148.61,20.30,342.28,167,-0.07,0.44,0.71,64.51,-40.37,-417.93,-138.942,-17.441,12.91729,3.30,4.87,12.00
16.10,4,0,1,98164.14,20.30,340.95,168,-0.07,0.44,0.70,62.99,-28.66,-424.21,-147.529,-19.156,10.8021,3.30,4.87,11.97
16.12,4,0,1,98158.11,20.30,341.47,169,-0.16,0.52,0.76,61.77,-17.38,-431.65,-156.245,-20.6211,8.377549,3.30,4.86,11.99
16.14,4,0,1,98166.73,20.30,340.73,170,-0.31,0.60,0.81,57.07,-11.04,-439.02,-165.022,-21.753,5.684899,3.30,4.87,12.02
16.16,4,0,1,98167.66,20.29,340.65,171,-0.39,0.64,0.74,49.82,-5.24,-442.56,-173.799,-22.4694,2.786373,3.30,4.87,12.02
16.18,4,0,1,98183.18,20.29,339.33,172,-0.57,0.68,0.79,41.34,-1.10,-442.80,173.3315,-22.5581,-1.70695,3.30,4.88,12.15
16.21,4,0,1,98184.84,20.30,339.19,173,-0.80,0.55,0.85,29.39,-2.99,-433.72,164.92,-21.934,-4.66508,3.30,4.87,11.86
16.23,4,0,1,98179.66,20.30,339.63,174,-0.84,0.41,0.83,21.16,-8.35,-423.90,156.753,-20.8332,-7.46161,3.30,4.88,11.83
16.25,4,0,1,98182.33,20.29,339.40,175,-0.89,0.30,0.80,16.16,-12.74,-411.28,148.8465,-19.2559,-9.99165,3.30,4.87,12.02
16.27,4,0,1,98195.19,20.30,338.31,176,-0.94,0.20,0.84,14.63,-22.68,-397.68,141.1475,-17.323,-12.2258,3.30,4.87,11.96
16.29,4,0,1,98183.18,20.29,339.33,177,-0.85,-0.00,0.82,13.84,-29.63,-386.95,129.9539,-13.9485,-14.9104,3.30,4.87,12.02
16.32,4,0,1,98191.84,20.28,337.71,178,-0.85,-0.05,0.78,16.65,-36.59,-375.55,122.6462,-11.4353,-16.1909,3.30,4.97,12.12
16.34,4,0,1,98192.68,20.29,338.52,179,-0.69,-0.23,0.82,23.48,-45.43,-366.95,115.5352,-8.84869,-17.0187,3.30,4.87,12.13
16.36,4,0,1,98199.52,20.30,337.94,180,-0.49,-0.21,0.80,29.82,-47.87,-356.89,108.6235,-6.27432,-17.4117,3.30,4.87,12.12
16.38,4,0,1,98198.70,20.29,338.01,181,-0.38,-0.33,0.78,37.13,-49.33,-347.26,101.9189,-3.74024,-17.3588,3.30,4.87,12.12
16.40,4,0,1,98208.20,20.29,337.20,182,-0.17,-0.33,0.71,45.49,-50.18,-335.91,95.39382,-1.33029,-16.9175,3.30,4.87,11.92
16.42,4,0,1,98213.38,20.29,336.76,183,-0.12,-0.25,0.78,53.41,-48.17,-327.32,89.05537,0.925231,-16.1602,3.30,4.87,11.84
16.44,4,0,1,98219.41,20.29,336.24,184,0.03,-0.29,0.75,58.78,-44.51,-317.44,82.82975,2.970704,-15.0918,3.30,4.88,11.78
16.46,4,0,1,98218.56,20.29,336.31,185,0.15,-0.15,0.77,66.59,-37.01,-312.56,76.70323,4.802804,-13.7885,3.30,4.87,11.96
16.48,4,0,1,98210.88,20.29,336.97,186,0.22,0.04,0.92,70.73,-31.71,-308.78,70.57448,6.402285,-12.3347,3.30,4.87,12.10
16.50,4,0,1,98222.89,20.28,335.94,187,0.36,0.00,0.85,70.00,-21.65,-309.09,61.37718,8.339735,-9.85206,3.30,4.87,12.02
16.53,4,0,1,98222.07,20.27,336.01,188,0.31,0.12,0.78,72.80,-12.01,-310.98,55.12101,9.330944,-8.07693,3.30,4.87,11.84
16.55,4,0,1,98226.41,20.27,335.65,189,0.30,0.17,0.82,69.76,-2.99,-317.74,48.73281,10.05339,-6.21991,3.30,4.87,11.91
16.57,4,0,1,98232.42,20.28,335.13,190,0.23,0.44,0.83,67.93,5.00,-325.24,42.16601,10.51771,-4.35317,3.30,4.86,11.94
16.59,4,0,1,98235.02,20.28,334.91,191,0.17,0.64,0.87,60.79,11.40,-334.33,35.43611,10.69953,-2.50791,3.30,4.87,11.97
16.61,4,0,1,98237.60,20.28,334.69,192,0.07,0.57,0.83,53.17,18.41,-342.74,28.60647,10.65875,-0.7544,3.30,4.87,12.12
16.63,4,0,1,98243.59,20.28,334.18,193,-0.12,0.76,0.80,42.62,19.33,-347.01,21.71804,10.389,0.893214,3.29,4.87,11.96
16.65,4,0,1,98236.75,20.27,334.76,194,-0.09,0.69,0.78,33.35,21.65,-349.39,14.8095,9.949254,2.388419,3.30,4.87,11.96
16.67,4,0,1,98253.13,20.28,333.37,195,-0.31,0.98,0.90,22.62,19.45,-349.27,4.543787,9.068962,4.302599,3.30,4.88,12.07
16.70,4,0,1,98252.28,20.27,333.00,196,-0.35,0.85,0.84,10.06,13.90,-344.88,-2.26699,8.351326,5.409242,3.30,4.87,11.99
16.72,4,0,1,98257.45,20.27,333.00,197,-0.46,0.77,0.92,3.90,9.02,-341.71,-9.00408,7.614107,6.327212,3.30,4.88,11.86
16.74,4,0,1,98260.05,20.27,332.12,198,-0.51,0.67,0.86,-4.82,-0.06,-336.46,-19.0264,6.481979,7.456736,3.29,4.85,11.88
16.77,4,0,1,98272.98,20.27,331.68,199,-0.56,0.61,0.88,-9.39,-9.45,-332.80,-25.6522,5.724675,8.066376,3.30,4.87,11.84
16.79,4,0,1,98278.16,20.27,331.24,200,-0.66,0.54,0.91,-11.46,-18.23,-328.60,-32.2262,5.004418,8.571213,3.30,4.86,11.75
16.81,4,0,1,98272.13,20.27,331.75,201,-0.55,0.41,0.90,-12.44,-27.38,-325.18,-38.6996,4.30233,9.007786,3.30,4.87,11.89
16.83,4,0,1,98285.92,20.27,330.57,202,-0.50,0.23,0.86,-9.33,-32.87,-319.88,-45.0706,3.641489,9.401645,3.30,4.88,12.10
16.85,4,0,1,98291.95,20.28,330.06,203,-0.42,0.13,0.95,-4.39,-39.51,-314.33,-51.3267,3.015636,9.79613,3.30,4.87,11.97
16.87,4,0,1,98296.27,20.27,329.69,204,-0.31,0.06,0.90,3.84,-44.70,-308.11,-57.4624,2.384304,10.17813,3.29,4.87,11.99
16.89,4,0,1,98298.86,20.27,329.47,205,-0.22,0.11,0.92,9.88,-46.04,-302.07,-63.4827,1.729623,10.54315,3.30,4.87,12.07
16.91,4,0,1,98301.45,20.27,329.25,206,-0.14,0.08,0.96,16.10,-44.76,-296.77,-69.4183,1.027937,10.9179,3.30,4.87,12.00
16.93,4,0,1,98301.45,20.27,329.25,207,-0.12,0.14,0.94,23.78,-42.32,-292.44,-78.201,-0.08456,11.40867,3.30,4.87,12.04
16.96,4,0,1,98307.55,20.26,328.73,208,0.04,0.21,0.95,29.21,-38.60,-290.18,-84.0093,-0.89126,11.66046,3.30,4.87,12.00
16.98,4,0,1,98317.89,20.26,327.85,209,0.06,0.31,0.97,30.55,-32.68,-289.09,-89.8175,-1.7681,11.89949,3.30,4.89,11.94
17.00,4,0,1,98309.28,20.26,328.59,210,0.08,0.44,0.92,31.71,-27.26,-289.88,-95.6483,-2.74445,12.03862,3.30,4.87,11.96
17.02,4,0,1,98310.13,20.26,328.51,211,0.12,0.56,0.91,30.49,-20.79,-291.40,-101.537,-3.81304,12.03893,3.30,4.87,11.97
17.04,4,0,1,98316.20,20.25,328.00,212,0.10,0.69,0.89,27.26,-14.70,-294.63,-107.539,-4.95243,11.86153,3.30,4.87,12.04
17.06,4,0,1,98322.23,20.26,327.48,213,-0.07,0.69,0.95,22.07,-10.79,-300.43,-113.64,-6.11877,11.50514,3.30,4.87,11.96
17.08,4,0,1,98329.14,20.25,326.89,214,-0.12,0.70,0.91,17.99,-7.99,-305.73,-119.88,-7.28347,10.94244,3.29,4.87,11.96
17.10,4,0,1,98320.48,20.26,327.63,215,-0.25,0.67,0.93,12.38,-7.44,-312.62,-129.397,-8.91916,9.747679,3.29,4.87,12.10
17.13,4,0,1,98326.55,20.25,327.12,216,-0.28,0.76,0.96,6.71,-7.13,-318.96,-135.846,-9.89964,8.70017,3.30,4.87,11.97
17.15,4,0,1,98330.91,20.25,326.74,217,-0.45,0.63,0.99,-1.34,-8.48,-323.54,-142.349,-10.7313,7.491346,3.30,4.87,11.96
17.17,4,0,1,98332.66,20.24,326.59,218,-0.59,0.50,1.04,-4.94,-12.56,-325.73,-148.883,-11.346,6.156943,3.30,4.87,12.07
17.19,4,0,1,98340.41,20.24,325.93,219,-0.69,0.52,1.02,-8.72,-19.15,-327.62,-158.552,-11.8354,4.00277,3.30,4.87,12.02
17.22,4,0,1,98346.52,20.23,325.42,220,-0.67,0.33,0.97,-13.48,-26.65,-323.54,-164.897,-11.8468,2.551312,3.30,4.87,11.99
17.24,4,0,1,98362.03,20.23,324.09,221,-0.72,0.23,0.98,-14.57,-35.85,-318.29,-171.063,-11.6118,1.182338,3.30,4.87,11.79
17.26,4,0,1,98360.34,20.23,324.24,222,-0.59,0.19,0.96,-12.50,-42.93,-310.12,-177.029,-11.1787,-0.1128,3.30,4.87,11.86
17.28,4,0,1,98364.63,20.23,323.87,223,-0.46,0.08,0.93,-13.11,-47.74,-300.37,177.1662,-10.575,-1.31402,3.30,4.87,11.86
17.30,4,0,1,98359.45,20.23,324.31,224,-0.46,-0.08,0.95,-7.56,-51.22,-290.67,171.5545,-9.78622,-2.3605,3.30,4.87,11.76
17.32,4,0,1,98373.28,20.22,323.14,225,-0.37,-0.19,0.90,-1.46,-56.40,-280.91,166.0849,-8.86525,-3.22955,3.30,4.87,11.81
17.34,4,0,1,98368.10,20.22,323.58,226,-0.21,-0.25,0.89,5.00,-57.99,-274.15,158.0045,-7.34984,-4.21909,3.31,4.87,11.92
17.37,4,0,1,98366.44,20.21,323.72,227,-0.08,-0.25,0.90,11.83,-57.87,-270.85,152.6535,-6.3051,-4.683,3.30,4.87,11.94
17.39,4,0,1,98371.61,20.21,323.28,228,0.06,-0.26,0.87,18.11,-55.30,-269.21,147.3108,-5.27421,-4.97001,3.30,4.87,11.89
17.41,4,0,1,98382.81,20.22,322.33,229,0.15,-0.35,0.91,26.40,-51.34,-268.90,141.9346,-4.2728,-5.09028,3.30,4.87,11.96
17.43,4,0,1,98393.98,20.22,321.37,230,0.30,-0.41,0.98,33.66,-46.65,-270.73,136.5282,-3.33377,-5.05209,3.30,4.87,11.94
17.45,4,0,1,98393.16,20.22,321.44,231,0.34,-0.26,0.88,39.57,-39.88,-272.38,131.0781,-2.4841,-4.88276,3.30,4.87,11.97
17.47,4,0,1,98407.84,20.21,320.20,232,0.45,-0.21,0.87,44.02,-31.89,-274.51,125.5457,-1.74907,-4.60077,3.30,4.87,12.07
17.49,4,0,1,98410.42,20.21,319.98,233,0.53,-0.14,0.91,47.56,-22.20,-278.48,119.9291,-1.13027,-4.23479,3.30,4.87,12.08
17.51,4,0,1,98407.84,20.21,320.20,234,0.44,0.01,0.96,48.41,-13.54,-282.56,111.3562,-0.3887,-3.59675,3.29,4.87,12.07
17.54,4,0,1,98418.19,20.21,319.32,235,0.40,0.14,0.98,46.89,-6.04,-287.56,105.5131,-0.02517,-3.13905,3.30,4.86,11.89
17.56,4,0,1,98423.36,20.21,318.88,236,0.31,0.30,0.99,43.66,1.04,-293.48,99.57005,0.229921,-2.72703,3.30,4.87,11.84
17.58,4,0,1,98428.54,20.21,318.43,237,0.23,0.39,0.96,35.55,7.01,-298.17,93.57686,0.400428,-2.33648,3.30,4.87,11.88
17.60,4,0,1,98429.46,20.20,318.36,238,0.12,0.32,0.97,30.98,10.73,-300.49,87.55964,0.514259,-1.99619,3.30,4.87,11.79
17.62,4,0,1,98426.88,20.20,318.58,239,-0.04,0.38,1.04,24.39,10.85,-301.59,81.52733,0.603676,-1.70197,3.30,4.87,11.68
17.64,4,0,1,98428.54,20.21,318.43,240,0.01,0.34,1.11,18.72,10.43,-302.13,75.5067,0.658218,-1.46511,3.30,4.89,11.75
17.66,4,0,1,98422.52,20.20,318.07,241,-0.04,0.22,1.05,12.38,10.18,-301.46,69.46431,0.698893,-1.25122,3.30,4.87,11.83
17.68,4,0,1,98438.04,20.20,317.63,242,-0.04,0.14,1.02,9.70,8.78,-302.50,60.3751,0.766719,-0.94212,3.30,4.87,11.79
17.71,4,0,1,98441.48,20.21,317.33,243,-0.02,0.08,1.00,8.35,5.49,-303.66,54.27633,0.782949,-0.79265,3.30,4.88,11.65
17.73,4,0,1,98454.42,20.21,316.23,244,-0.01,-0.08,1.10,10.18,4.45,-305.49,48.17957,0.798391,-0.62326,3.30,4.86,11.49
17.75,4,0,1,98454.42,20.21,316.23,245,-0.04,-0.08,1.10,11.22,2.13,-305.37,42.13861,0.844192,-0.43778,3.28,4.87,11.91
17.77,4,0,1,98454.42,20.21,316.23,246,0.06,-0.18,1.01,14.51,1.95,-302.50,33.30208,0.858274,-0.10172,3.30,4.87,11.97
17.80,4,0,1,98457.92,20.20,315.94,247,0.08,-0.21,1.07,18.23,2.99,-295.37,27.53322,0.826356,0.183107,3.31,4.87,11.88
17.82,4,0,1,98466.50,20.20,315.21,248,0.19,-0.40,1.15,24.39,4.51,-289.02,21.87547,0.738468,0.522249,3.30,4.87,12.08
17.84,4,0,1,98475.12,20.21,314.47,249,0.33,-0.31,1.12,29.63,8.54,-283.60,16.28151,0.549075,0.901523,3.30,4.87,11.97
17.86,4,0,1,98464.77,20.21,315.35,250,0.52,-0.24,1.08,33.84,16.16,-280.73,10.69758,0.238726,1.29322,3.30,4.87,12.08
17.88,4,0,1,98469.09,20.20,314.98,251,0.51,-0.12,1.03,36.71,24.82,-280.73,5.031292,-0.19499,1.664305,3.30,4.88,11.97
17.90,4,0,1,98480.30,20.21,314.03,252,0.60,-0.03,0.99,37.44,33.35,-285.49,-0.817,-0.77221,1.964775,3.30,4.87,11.75
17.92,4,0,1,98478.63,20.20,314.17,253,0.65,0.11,1.02,34.57,43.72,-295.49,-6.90555,-1.48813,2.13314,3.29,4.88,12.05
17.94,4,0,1,98476.85,20.20,314.33,254,0.61,0.23,0.89,27.62,54.02,-308.60,-16.3236,-2.73419,2.130026,3.30,4.86,11.99
17.97,4,0,1,98485.47,20.21,313.59,255,0.54,0.32,0.92,21.22,63.35,-319.82,-22.7787,-3.64489,1.897895,3.30,4.87,11.97
17.99,4,0,1,98501.84,20.22,312.20,256,0.39,0.50,0.94,9.94,70.73,-329.82,-29.4072,-4.57546,1.430485,3.30,4.88,12.04
18.01,4,0,1,98492.31,20.22,313.01,257,0.20,0.46,0.86,-2.20,75.06,-339.94,-36.1448,-5.46808,0.707563,3.30,4.88,11.83
18.03,4,0,1,98501.00,20.21,312.27,258,0.10,0.51,0.91,-16.16,76.83,-346.89,-42.9183,-6.26354,-0.27871,3.30,4.87,11.97
18.05,4,0,1,98507.02,20.22,311.54,259,-0.06,0.56,0.86,-31.95,75.49,-350.30,-49.6303,-6.88846,-1.49327,3.30,4.87,11.81
18.07,4,0,1,98507.84,20.22,311.69,260,-0.25,0.61,0.87,-46.28,69.88,-348.54,-56.2311,-7.29104,-2.90087,3.30,4.87,11.91
18.09,4,0,1,98506.17,20.21,312.27,261,-0.38,0.49,0.95,-59.70,61.89,-344.15,-62.6734,-7.42111,-4.45432,3.30,4.87,11.79
18.11,4,0,1,98510.49,20.20,311.46,262,-0.59,0.44,0.94,-71.40,49.82,-337.13,-72.0859,-7.08298,-6.8849,3.30,4.87,11.75
18.14,4,0,1,98511.34,20.21,311.39,263,-0.63,0.17,0.83,-78.41,34.63,-329.51,-78.2204,-6.49196,-8.50531,3.30,4.88,11.92
18.16,4,0,1,98513.02,20.22,311.25,264,-0.66,-0.13,0.84,-81.46,18.41,-322.07,-84.2141,-5.59681,-10.0379,3.30,4.87,11.83
18.18,4,0,1,98506.17,20.22,311.83,265,-0.64,-0.30,0.85,-79.88,3.29,-314.39,-90.0155,-4.40473,-11.4022,3.31,4.86,11.79
18.20,4,0,1,98528.54,20.22,309.93,266,-0.53,-0.42,0.83,-74.33,-14.09,-303.60,-98.4142,-2.2606,-13.1086,3.30,4.87,11.81
18.23,4,0,1,98523.36,20.22,310.59,267,-0.39,-0.73,0.84,-66.89,-24.33,-292.01,-103.692,-0.68126,-13.9346,3.30,4.87,11.86
18.25,4,0,1,98519.95,20.22,310.66,268,-0.25,-0.85,0.95,-55.12,-33.66,-273.90,-108.616,0.927241,-14.4774,3.30,4.87,11.86
18.27,4,0,1,98538.89,20.22,309.05,269,-0.08,-0.94,0.94,-42.62,-37.80,-254.21,-113.135,2.482092,-14.767,3.31,4.87,11.81
18.29,4,0,1,98536.30,20.22,309.27,270,-0.01,-0.90,0.90,-31.34,-39.02,-232.56,-117.242,3.951559,-14.8083,3.30,4.87,11.83
18.31,4,0,1,98532.89,20.22,309.56,271,0.16,-0.89,0.96,-18.29,-38.84,-209.94,-120.994,5.277185,-14.6186,3.30,4.87,12.12
18.33,4,0,1,98534.63,20.21,309.41,272,0.40,-1.02,0.86,-5.06,-33.60,-190.06,-124.502,6.467985,-14.2471,3.30,4.87,12.04
18.35,4,0,1,98544.06,20.22,308.61,273,0.41,-0.81,0.85,5.24,-28.17,-176.46,-129.51,8.028445,-13.4271,3.30,4.87,11.96
18.38,4,0,1,98548.42,20.22,308.24,274,0.54,-0.78,0.82,14.45,-20.91,-166.77,-132.717,8.891219,-12.7243,3.30,4.87,12.04
18.40,4,0,1,98552.75,20.21,307.87,275,0.62,-0.79,0.83,23.54,-11.59,-159.45,-135.851,9.591433,-11.9139,3.30,4.87,12.10
18.42,4,0,1,98566.53,20.22,306.70,276,0.62,-0.71,0.83,30.00,-2.07,-155.18,-138.957,10.12951,-10.9992,3.30,4.87,11.94
18.44,4,0,1,98568.27,20.21,306.55,277,0.60,-0.64,0.76,36.77,7.62,-153.41,-142.095,10.52506,-9.99964,3.30,4.87,12.08
18.46,4,0,1,98563.09,20.21,306.99,278,0.65,-0.56,0.78,41.40,16.65,-154.57,-145.354,10.76717,-8.92482,3.30,4.87,12.04
18.48,4,0,1,98563.09,20.21,306.99,279,0.84,-0.57,0.80,44.45,27.56,-160.30,-148.765,10.83805,-7.78916,3.30,4.87,11.97
18.50,4,0,1,98578.63,20.21,305.67,280,0.72,-0.44,0.69,46.77,39.70,-167.93,-154.117,10.70945,-6.06555,3.30,4.87,11.94
18.53,4,0,1,98581.21,20.21,305.45,281,0.68,-0.34,0.74,45.73,48.78,-175.98,-157.829,10.43978,-4.91753,3.30,4.87,12.08
18.55,4,0,1,98582.95,20.20,304.21,282,0.70,-0.28,0.74,44.88,59.45,-183.54,-161.684,10.00015,-3.80926,3.30,4.87,12.08
18.57,4,0,1,98594.16,20.21,304.35,283,0.68,-0.25,0.69,41.34,70.18,-191.10,-165.657,9.413719,-2.77444,3.30,4.87,12.15
18.59,4,0,1,98600.17,20.22,303.84,284,0.67,-0.14,0.78,35.18,78.90,-197.07,-169.735,8.66054,-1.83497,3.30,4.88,11.81
18.61,4,0,1,98598.47,20.20,303.99,285,0.61,-0.19,0.73,30.12,89.39,-203.05,-173.888,7.779303,-1.02159,3.29,4.87,11.76
18.63,4,0,1,98604.50,20.20,303.48,286,0.43,-0.15,0.71,23.29,96.77,-207.38,-178.098,6.836607,-0.35089,3.30,4.87,11.81
18.65,4,0,1,98608.01,20.20,303.18,287,0.39,-0.12,0.70,15.24,98.84,-210.49,177.7008,5.804018,0.151426,3.30,4.87,11.47
18.67,4,0,1,98609.68,20.20,303.04,288,0.38,-0.11,0.78,6.10,104.45,-210.30,171.4856,4.148569,0.562179,3.30,4.87,11.88
18.70,4,0,1,98604.50,20.21,303.48,289,0.23,-0.14,0.76,-4.33,107.56,-207.99,167.3801,2.999137,0.645121,3.29,4.87,11.75
18.72,4,0,1,98616.59,20.20,302.67,290,0.07,-0.10,0.79,-12.74,107.62,-205.79,161.3335,1.343128,0.492733,3.30,4.87,11.75
18.75,4,0,1,98618.36,20.20,302.30,291,0.11,-0.25,0.82,-20.67,106.34,-202.26,157.3905,0.273458,0.233435,3.30,4.87,11.73
18.77,4,0,1,98623.47,20.22,301.86,292,0.09,-0.30,0.88,-26.83,105.12,-197.74,153.5377,-0.73731,-0.14097,3.29,4.87,11.71
18.79,4,0,1,98625.20,20.21,301.72,293,0.11,-0.31,0.92,-31.40,102.20,-193.35,149.8079,-1.69783,-0.62819,3.30,4.87,11.70
18.81,4,0,1,98623.53,20.20,301.86,294,0.02,-0.39,0.93,-36.04,98.96,-187.38,146.2261,-2.60167,-1.19925,3.30,4.87,11.84
18.83,4,0,1,98627.80,20.21,301.50,295,0.04,-0.52,0.98,-38.78,96.59,-180.24,142.8074,-3.45309,-1.83261,3.30,4.87,11.70
18.85,4,0,1,98638.14,20.21,300.62,296,0.05,-0.58,1.01,-40.12,94.57,-172.44,139.5518,-4.2588,-2.5073,3.29,4.87,11.55
18.87,4,0,1,98639.06,20.20,300.54,297,0.13,-0.66,0.98,-40.12,93.41,-164.76,135.0083,-5.3876,-3.539,3.30,4.87,11.67
18.90,4,0,1,98640.80,20.19,300.39,298,0.17,-0.81,1.04,-37.07,91.28,-154.27,132.2421,-6.11674,-4.23554,3.30,4.87,11.71
18.92,4,0,1,98633.03,20.19,301.05,299,0.11,-0.90,1.04,-34.51,90.85,-142.01,129.7453,-6.83672,-4.89321,3.30,4.87,11.73
18.94,4,0,1,98649.41,20.20,299.66,300,0.13,-0.90,1.03,-29.33,90.85,-129.27,127.5332,-7.55766,-5.50736,3.29,4.87,12.08
18.96,4,0,1,98657.93,20.22,298.94,301,0.20,-0.82,0.95,-24.70,91.22,-115.79,125.5982,-8.29528,-6.0687,3.30,4.86,12.12
18.98,4,0,1,98672.64,20.22,297.69,302,0.29,-0.79,0.89,-19.70,92.32,-102.68,123.9018,-9.06069,-6.58094,3.30,4.87,12.04
19.00,4,0,1,98663.17,20.20,298.49,303,0.19,-0.76,0.98,-14.70,93.72,-91.52,122.4208,-9.85306,-7.04945,3.30,4.87,12.08
19.02,4,0,1,98676.95,20.21,297.32,304,0.16,-0.78,0.92,-10.24,94.51,-81.46,121.1556,-10.6685,-7.46246,3.29,4.87,12.05
19.04,4,0,1,98678.63,20.22,297.18,305,0.20,-0.67,0.93,-5.98,95.12,-71.16,119.5275,-11.9624,-8.02298,3.30,4.87,12.13
19.07,4,0,1,98682.13,20.21,296.88,306,0.10,-0.63,0.90,-1.40,97.13,-62.99,118.6275,-12.8498,-8.33093,3.30,4.87,11.99
19.09,4,0,1,98678.63,20.22,296.52,307,0.02,-0.69,0.97,4.57,96.40,-53.66,117.921,-13.7741,-8.57845,3.30,4.87,11.96
19.11,4,0,1,98684.72,20.21,296.66,308,0.00,-0.59,0.91,8.23,96.65,-44.02,117.3861,-14.7416,-8.78249,3.30,4.87,11.88
19.13,4,0,1,98694.16,20.22,295.86,309,-0.04,-0.61,0.91,10.85,96.95,-35.67,117.0112,-15.7503,-8.90005,3.30,4.87,12.10
19.15,4,0,1,98691.56,20.22,296.08,310,-0.03,-0.55,0.81,16.59,97.07,-26.83,116.7636,-16.7911,-8.9365,3.30,4.87,12.08
19.17,4,0,1,98702.77,20.23,295.13,311,-0.02,-0.47,0.78,21.52,96.71,-19.51,116.6878,-18.4321,-8.84335,3.29,4.87,12.10
19.20,4,0,1,98714.86,20.22,294.10,312,-0.13,-0.39,0.78,26.10,96.16,-8.78,116.7658,-19.536,-8.70443,3.30,4.86,11.84
19.22,4,0,1,98705.42,20.21,294.91,313,-0.18,-0.38,0.79,29.39,92.50,-1.10,116.9892,-20.6549,-8.46493,3.30,4.86,11.99
19.24,4,0,1,98708.86,20.22,294.61,314,-0.29,-0.31,0.83,32.68,89.76,7.56,117.3525,-21.7767,-8.1295,3.30,4.87,12.00
19.26,4,0,1,98710.60,20.21,293.81,315,-0.38,-0.25,0.84,34.88,86.04,15.73,117.8461,-22.8899,-7.6851,3.30,4.86,12.02
19.28,4,0,1,98720.89,20.23,293.59,316,-0.40,-0.23,0.85,38.11,81.65,24.39,118.8033,-24.56,-6.87929,3.30,4.87,12.00
19.31,4,0,1,98722.63,20.22,293.44,317,-0.42,-0.20,0.82,39.21,77.56,32.56,119.5602,-25.6509,-6.21843,3.30,4.87,11.99
19.33,4,0,1,98730.39,20.22,292.79,318,-0.43,-0.17,0.84,42.38,72.50,41.10,120.4372,-26.6929,-5.45588,3.30,4.87,11.91
19.35,4,0,1,98735.56,20.22,292.35,319,-0.48,-0.15,0.88,43.29,66.65,49.02,121.4254,-27.7004,-4.59123,3.30,4.87,12.04
19.37,4,0,1,98729.56,20.22,292.86,320,-0.42,-0.18,0.82,45.30,62.44,57.01,122.5261,-28.6474,-3.59019,3.30,4.87,11.79
19.39,4,0,1,98738.15,20.22,292.13,321,-0.45,-0.07,0.87,47.38,57.13,65.24,123.7409,-29.5299,-2.46803,3.30,4.88,11.86
19.41,4,0,1,98735.56,20.22,292.35,322,-0.43,0.02,0.88,48.66,52.26,73.11,125.0574,-30.3373,-1.26184,3.30,4.87,11.78
19.43,4,0,1,98739.06,20.21,292.05,323,-0.44,-0.02,0.85,48.60,47.80,79.76,126.4239,-31.0258,0.06041,3.30,4.87,11.81
19.45,4,0,1,98745.91,20.22,291.47,324,-0.47,0.03,0.88,50.79,41.52,86.40,128.5937,-31.8771,2.167906,3.30,4.87,11.79
19.48,4,0,1,98746.83,20.21,291.39,325,-0.53,-0.02,0.91,50.61,36.34,92.56,130.1161,-32.2956,3.662321,3.30,4.88,11.73
19.50,4,0,1,98749.42,20.21,291.17,326,-0.53,-0.07,0.85,50.85,30.37,99.51,131.6233,-32.5485,5.240065,3.29,4.87,11.84
19.52,4,0,1,98752.86,20.22,290.88,327,-0.53,-0.08,0.89,52.93,23.72,104.33,133.1535,-32.6208,6.91043,3.29,4.87,11.84
19.54,4,0,1,98756.27,20.22,290.59,328,-0.55,-0.02,0.91,54.09,17.26,110.61,134.6459,-32.5005,8.64903,3.30,4.88,11.84
19.56,4,0,1,98760.63,20.22,290.22,329,-0.60,-0.06,0.92,56.10,10.06,115.67,136.1193,-32.1899,10.46432,3.30,4.87,11.88
19.58,4,0,1,98765.80,20.22,289.78,330,-0.50,-0.19,0.89,58.17,3.41,121.71,137.6275,-31.672,12.31674,3.30,4.88,11.70
19.60,4,0,1,98773.56,20.22,289.12,331,-0.50,-0.12,0.87,56.28,-2.87,127.26,139.0877,-30.9371,14.24446,3.30,4.87,11.92
19.62,4,0,1,98770.13,20.21,289.41,332,-0.51,-0.09,0.87,58.84,-10.12,133.66,141.1795,-29.4253,17.19537,3.30,4.87,11.86
19.65,4,0,1,98770.97,20.22,289.34,333,-0.41,0.08,0.84,59.02,-18.72,139.15,142.6058,-28.2375,19.17117,3.29,4.87,11.89
19.67,4,0,1,98775.30,20.21,288.98,334,-0.35,0.02,0.79,57.87,-22.80,144.21,144.0351,-26.8561,21.13595,3.30,4.87,11.89
19.69,4,0,1,98780.47,20.21,288.54,335,-0.46,0.02,0.80,56.22,-28.78,149.63,146.1392,-24.3562,24.03342,3.30,4.87,11.91
19.72,4,0,1,98777.03,20.20,288.83,336,-0.46,0.15,0.79,53.60,-38.17,157.01,147.5884,-22.4866,25.88061,3.29,4.87,11.78
19.74,4,0,1,98791.67,20.22,287.59,337,-0.44,0.17,0.73,49.27,-43.78,162.56,149.0579,-20.4127,27.62167,3.30,4.87,11.78
19.76,4,0,1,98793.41,20.21,287.44,338,-0.42,0.23,0.76,44.51,-50.55,168.05,150.4908,-18.1791,29.23615,3.29,4.87,11.70
19.78,4,0,1,98799.50,20.20,286.92,339,-0.35,0.23,0.71,40.98,-57.01,171.34,151.8844,-15.8048,30.69117,3.29,4.87,11.70
19.80,4,0,1,98793.47,20.19,287.21,340,-0.29,0.25,0.73,36.77,-63.23,173.78,153.2855,-13.3431,31.91972,3.30,4.88,11.78
19.82,4,0,1,98798.66,20.19,286.99,341,-0.26,0.32,0.73,30.00,-67.20,174.02,154.6714,-10.8303,32.92356,3.30,4.87,12.07
19.84,4,0,1,98804.68,20.20,286.48,342,-0.22,0.35,0.74,24.39,-70.55,173.11,156.7341,-7.04701,33.97261,3.30,4.87,11.96
19.87,4,0,1,98812.44,20.20,285.83,343,-0.14,0.34,0.74,16.83,-72.80,169.70,158.0509,-4.55192,34.40295,3.30,4.88,12.05
19.89,4,0,1,98810.73,20.19,285.97,344,-0.07,0.34,0.75,11.40,-74.82,164.82,159.3461,-2.09432,34.56663,3.30,4.87,12.10
19.91,4,0,1,98815.03,20.20,285.61,345,0.02,0.35,0.71,4.02,-75.79,159.88,160.632,0.289147,34.49266,3.30,4.88,12.00
19.93,4,0,1,98819.41,20.20,285.23,346,0.10,0.43,0.76,-2.44,-74.94,153.90,161.965,2.570946,34.16519,3.30,4.87,11.97
19.95,4,0,1,98823.67,20.19,284.87,347,0.13,0.48,0.73,-10.37,-72.13,147.99,163.3606,4.753329,33.61646,3.30,4.87,12.04
19.97,4,0,1,98813.33,20.19,285.75,348,0.14,0.48,0.73,-17.32,-69.21,143.60,164.7948,6.841297,32.85588,3.30,4.87,12.12
19.99,4,0,1,98817.68,20.18,285.38,349,0.21,0.58,0.79,-24.76,-67.01,139.15,166.3243,8.801997,31.88073,3.30,4.88,12.07
20.01,4,0,1,98834.03,20.19,283.99,350,0.28,0.47,0.74,-33.17,-62.01,134.63,168.7013,11.52528,30.15883,3.29,4.87,11.97
20.04,4,0,1,98831.50,20.17,284.21,351,0.27,0.50,0.76,-39.76,-57.87,130.24,170.3378,13.18851,28.88656,3.30,4.86,11.97
20.06,4,0,1,98832.36,20.18,284.14,352,0.30,0.47,0.85,-44.76,-52.99,126.04,171.9881,14.68851,27.50022,3.30,4.87,11.99
20.08,4,0,1,98843.63,20.17,283.18,353,0.29,0.48,0.82,-51.28,-48.23,120.61,173.6303,16.02489,26.03469,3.30,4.87,11.99
20.10,4,0,1,98837.59,20.16,283.69,354,0.33,0.48,0.78,-56.83,-43.29,114.57,175.2535,17.19015,24.49771,3.30,4.87,11.96
20.12,4,0,1,98840.97,20.18,283.41,355,0.38,0.46,0.80,-63.05,-38.11,108.23,176.8258,18.16972,22.93814,3.30,4.87,11.96
20.14,4,0,1,98850.47,20.18,282.60,356,0.37,0.46,0.73,-67.62,-32.68,100.91,178.3451,18.96353,21.39186,3.30,4.87,12.02
20.16,4,0,1,98845.30,20.18,283.04,357,0.32,0.47,0.75,-70.91,-27.01,94.27,179.7578,19.59228,19.83047,3.30,4.87,12.10
20.18,4,0,1,98849.55,20.19,282.68,358,0.37,0.46,0.74,-77.26,-22.99,86.04,-178.309,20.22348,17.5169,3.30,4.87,12.10
20.21,4,0,1,98861.73,20.17,281.65,359,0.47,0.40,0.79,-82.32,-15.55,74.27,-177.164,20.4637,16.02137,3.30,4.87,11.84
20.23,4,0,1,98864.32,20.17,281.43,360,0.50,0.36,0.80,-86.71,-9.70,63.78,-176.212,20.49903,14.62386,3.30,4.87,11.91
20.25,4,0,1,98870.31,20.17,280.92,361,0.46,0.45,0.77,-90.61,-3.11,52.32,-175.095,20.41849,12.68194,3.30,4.85,11.92
20.28,4,0,1,98877.26,20.17,280.33,362,0.43,0.52,0.74,-94.02,-0.24,42.93,-174.443,20.26983,11.36556,3.30,4.87,11.71
20.30,4,0,1,98878.94,20.18,280.19,363,0.55,0.32,0.72,-96.89,6.34,31.28,-173.971,19.95294,10.13964,3.29,4.87,11.76
20.32,4,0,1,98879.84,20.17,280.11,364,0.49,0.31,0.72,-101.52,11.89,22.68,-173.607,19.60336,8.930458,3.30,4.87,11.88
20.34,4,0,1,98882.44,20.17,279.89,365,0.51,0.18,0.72,-102.01,16.52,13.29,-173.356,19.19543,7.747791,3.29,4.87,11.89
20.36,4,0,1,98880.73,20.16,280.04,366,0.46,0.10,0.66,-105.37,20.79,6.59,-173.215,18.74738,6.646109,3.30,4.87,11.91
20.38,4,0,1,98891.94,20.16,279.52,367,0.42,0.08,0.69,-103.17,23.11,0.91,-173.111,18.06217,5.05508,3.30,4.87,11.62
20.41,4,0,1,98892.79,20.17,279.01,368,0.42,0.05,0.66,-102.68,26.28,-3.11,-173.122,17.58855,4.023291,3.30,4.87,11.60
20.43,4,0,1,98892.79,20.17,279.01,369,0.49,0.01,0.69,-103.60,31.59,-7.44,-173.188,17.07482,3.03544,3.30,4.87,11.73
20.45,4,0,1,98896.26,20.16,278.72,370,0.42,-0.13,0.71,-101.34,34.76,-10.24,-173.301,16.56892,2.086123,3.30,4.87,11.70
20.47,4,0,1,98901.44,20.17,278.28,371,0.42,-0.16,0.68,-99.02,36.59,-12.13,-173.456,16.04854,1.178118,3.30,4.87,11.81
20.49,4,0,1,98908.31,20.17,277.70,372,0.46,-0.22,0.75,-95.98,39.82,-13.66,-173.634,15.50396,0.299134,3.30,4.87,11.83
20.51,4,0,1,98909.19,20.17,277.62,373,0.45,-0.30,0.74,-93.48,43.78,-14.21,-173.832,14.93049,-0.53314,3.30,4.87,11.78
20.53,4,0,1,98915.16,20.18,277.12,374,0.41,-0.36,0.85,-88.78,47.01,-14.21,-174.052,14.34339,-1.3313,3.30,4.88,11.79
20.55,4,0,1,98913.49,20.17,277.26,375,0.43,-0.41,0.87,-85.12,50.18,-14.09,-174.419,13.44074,-2.44005,3.30,4.88,11.84
20.58,4,0,1,98923.84,20.17,276.38,376,0.46,-0.42,0.85,-78.66,53.96,-13.60,-174.689,12.82576,-3.16036,3.30,4.87,11.86
20.60,4,0,1,98923.84,20.17,276.38,377,0.44,-0.40,0.85,-76.10,57.01,-12.74,-174.965,12.17285,-3.83848,3.30,4.87,11.83
20.62,4,0,1,98934.19,20.17,275.50,378,0.40,-0.42,0.86,-70.91,61.10,-11.22,-175.204,11.48246,-4.48152,3.30,4.87,11.86
20.64,4,0,1,98935.87,20.18,275.36,379,0.28,-0.45,0.92,-65.73,63.48,-7.32,-175.394,10.78057,-5.08695,3.30,4.89,11.83
20.66,4,0,1,98929.02,20.17,275.94,380,0.22,-0.40,0.89,-60.24,64.21,-2.99,-175.563,10.05976,-5.65688,3.30,4.87,11.88
20.68,4,0,1,98942.78,20.17,274.78,381,0.16,-0.35,0.90,-56.10,65.30,0.06,-175.712,8.95046,-6.46112,3.30,4.87,11.88
20.71,4,0,1,98943.69,20.16,274.70,382,0.10,-0.42,0.98,-50.79,66.59,5.73,-175.751,8.211435,-6.96385,3.30,4.87,11.62
20.73,4,0,1,98945.42,20.16,274.55,383,0.02,-0.31,0.88,-47.07,65.37,10.67,-175.7,7.46258,-7.44736,3.30,4.87,11.67
20.75,4,0,1,98953.98,20.18,273.83,384,-0.02,-0.30,0.88,-43.96,65.12,16.52,-175.558,6.720301,-7.90379,3.30,4.88,11.75
20.77,4,0,1,98953.19,20.16,273.90,385,-0.06,-0.29,0.90,-40.49,63.17,21.89,-175.352,5.976143,-8.33942,3.30,4.87,11.76
20.79,4,0,1,98962.66,20.17,273.09,386,-0.08,-0.30,0.87,-37.62,62.32,25.91,-174.953,4.858072,-8.9407,3.30,4.87,11.99
20.82,4,0,1,98963.54,20.16,273.02,387,-0.08,-0.24,0.86,-34.88,61.10,30.00,-174.647,4.108095,-9.34032,3.30,4.87,12.07
20.84,4,0,1,98971.24,20.17,272.37,388,-0.07,-0.26,0.80,-34.27,60.55,32.80,-174.274,3.360673,-9.69367,3.30,4.87,12.08
20.86,4,0,1,98971.24,20.17,272.37,389,-0.18,-0.29,0.78,-29.45,58.78,36.40,-173.832,2.637224,-10.0136,3.30,4.87,12.07
20.88,4,0,1,98973.01,20.17,272.22,390,-0.18,-0.21,0.80,-27.87,55.06,39.63,-173.32,1.907272,-10.3073,3.30,4.87,12.07
20.90,4,0,1,98979.00,20.17,271.71,391,-0.19,-0.22,0.81,-25.73,54.02,43.35,-172.711,1.188378,-10.5715,3.30,4.87,12.08
20.92,4,0,1,98980.77,20.17,272.00,392,-0.28,-0.23,0.83,-23.23,50.85,47.62,-171.989,0.491514,-10.8083,3.30,4.86,12.08
20.94,4,0,1,98981.59,20.17,271.49,393,-0.33,-0.31,0.86,-20.49,46.34,52.07,-170.755,-0.5375,-11.0822,3.30,4.87,12.12
20.97,4,0,1,98982.45,20.18,270.98,394,-0.31,-0.26,0.80,-17.07,42.99,56.46,-169.782,-1.20777,-11.2308,3.30,4.87,12.07
20.99,4,0,1,98987.63,20.18,270.98,395,-0.34,-0.27,0.85,-15.61,38.48,62.56,-168.675,-1.85289,-11.3112,3.30,4.87,12.07
21.01,4,0,1,98995.45,20.16,270.32,396,-0.29,-0.15,0.89,-12.80,34.39,68.05,-167.443,-2.48692,-11.3487,3.30,4.87,12.12
21.03,4,0,1,98995.39,20.18,270.32,397,-0.27,-0.19,0.90,-10.55,30.98,73.11,-166.066,-3.1047,-11.3446,3.30,4.87,12.13
21.05,4,0,1,99005.73,20.18,269.44,398,-0.30,-0.17,0.91,-8.90,27.01,78.90,-164.58,-3.72736,-11.3303,3.30,4.88,12.12
21.07,4,0,1,99004.00,20.18,269.59,399,-0.28,-0.23,0.81,-9.02,24.82,83.41,-162.966,-4.33511,-11.2547,3.30,4.87,12.00
21.09,4,0,1,99002.23,20.17,269.74,400,-0.32,-0.21,0.82,-6.04,21.40,88.72,-161.201,-4.9002,-11.1369,3.30,4.88,12.05
21.11,4,0,1,99003.15,20.18,269.66,401,-0.17,-0.14,0.82,-6.95,18.11,94.63,-158.43,-5.68862,-10.8445,3.30,4.87,11.86
21.14,4,0,1,99008.33,20.18,269.23,402,-0.15,-0.09,0.78,-2.74,14.51,97.68,-156.444,-6.24386,-10.6666,3.30,4.87,12.00
21.16,4,0,1,99015.17,20.19,268.65,403,-0.22,-0.06,0.74,-7.32,14.39,103.72,-154.355,-6.8229,-10.4628,3.30,4.88,11.86
21.18,4,0,1,99020.35,20.19,268.21,404,-0.41,-0.30,0.86,-4.27,12.26,108.66,-152.038,-7.31254,-10.1755,3.30,4.87,11.88
21.20,4,0,1,99019.53,20.18,268.28,405,-0.19,-0.20,0.78,-4.70,6.10,117.07,-148.297,-8.03055,-9.65217,3.30,4.87,11.75
21.23,4,0,1,99022.18,20.17,268.05,406,-0.32,-0.09,0.85,-3.05,2.07,124.70,-145.66,-8.48457,-9.29471,3.30,4.87,11.70
21.25,4,0,1,99026.44,20.18,267.69,407,-0.47,-0.24,0.83,-3.17,-2.93,130.12,-142.849,-8.88808,-8.85958,3.30,4.87,11.71
21.27,4,0,1,99022.18,20.18,268.05,408,-0.54,-0.17,0.84,-0.91,-7.93,137.56,-139.886,-9.2158,-8.40025,3.30,4.88,11.68
21.29,4,0,1,99034.20,20.18,267.03,409,-0.41,-0.07,0.86,-4.21,-12.93,142.44,-136.774,-9.54157,-7.94443,3.30,4.87,11.73
21.31,4,0,1,99039.38,20.18,266.60,410,-0.51,-0.17,0.85,-6.04,-14.57,149.15,-133.487,-9.78258,-7.44635,3.30,4.87,11.86
21.33,4,0,1,99032.53,20.17,267.18,411,-0.49,-0.03,0.85,-7.62,-20.67,155.61,-130.057,-9.96909,-6.92633,3.30,4.87,11.83
21.35,4,0,1,99043.70,20.17,266.23,412,-0.45,-0.11,0.87,-8.41,-24.88,161.65,-126.447,-10.1197,-6.42913,3.30,4.87,11.88
21.37,4,0,1,99060.08,20.18,264.84,413,-0.54,-0.04,0.85,-13.78,-27.44,168.72,-120.801,-10.2515,-5.67213,3.30,4.87,11.86
21.40,4,0,1,99057.50,20.18,265.06,414,-0.54,-0.08,0.85,-15.67,-31.46,175.55,-116.864,-10.2753,-5.18196,3.30,4.87,11.88
21.42,4,0,1,99050.64,20.17,265.64,415,-0.63,-0.01,0.93,-20.49,-34.88,182.56,-112.777,-10.2222,-4.71784,3.30,4.87,11.89
21.44,4,0,1,99061.00,20.17,264.77,416,-0.67,0.09,0.85,-25.37,-40.00,188.35,-108.57,-10.0925,-4.28212,3.30,4.88,11.88
21.46,4,0,1,99062.73,20.16,264.62,417,-0.67,0.08,0.82,-29.15,-45.24,193.35,-104.284,-9.89196,-3.9081,3.30,4.88,11.88
21.48,4,0,1,99067.91,20.16,264.18,418,-0.64,0.16,0.79,-35.67,-49.39,195.98,-99.9362,-9.65496,-3.61802,3.30,4.87,11.88
21.50,4,0,1,99070.44,20.18,263.97,419,-0.59,0.15,0.76,-43.17,-51.10,197.93,-95.5559,-9.40474,-3.41718,3.30,4.87,11.83
21.52,4,0,1,99072.23,20.16,263.82,420,-0.61,0.06,0.82,-49.88,-51.59,199.09,-89.0309,-8.94054,-3.20588,3.30,4.87,11.84
21.55,4,0,1,99077.40,20.16,263.82,421,-0.56,0.16,0.81,-54.33,-55.30,198.84,-84.6731,-8.63259,-3.15389,3.30,4.87,11.84
21.57,4,0,1,99077.40,20.16,263.38,422,-0.47,0.22,0.71,-61.28,-54.21,199.94,-80.3018,-8.34882,-3.22355,3.30,4.88,11.83
21.59,4,0,1,99092.93,20.16,262.06,423,-0.53,0.13,0.73,-70.43,-53.29,200.37,-75.9343,-8.09736,-3.36815,3.30,4.87,11.86
21.61,4,0,1,99082.58,20.16,262.94,424,-0.56,-0.14,0.80,-72.99,-52.13,202.07,-71.5496,-7.87017,-3.55855,3.30,4.88,11.88
21.63,4,0,1,99087.75,20.16,262.50,425,-0.57,-0.08,0.79,-77.38,-51.59,204.45,-67.167,-7.70408,-3.80962,3.30,4.87,11.89
21.67,4,0,1,99101.60,20.16,261.33,427,-0.45,-0.07,0.74,-85.85,-45.43,208.05,-62.7724,-7.58827,-4.099,3.30,4.87,11.86
21.70,4,0,1,99098.10,20.16,261.63,428,-0.34,-0.09,0.72,-90.24,-40.00,211.40,-56.1474,-7.55751,-4.59988,3.30,4.87,11.73
21.72,4,0,1,99101.60,20.15,261.33,429,-0.36,-0.10,0.75,-92.74,-36.28,214.02,-51.7222,-7.61547,-4.95207,3.30,4.87,11.73
21.74,4,0,1,99105.92,20.14,260.97,430,-0.35,-0.24,0.75,-92.26,-31.89,218.41,-47.2643,-7.74748,-5.31879,3.30,4.87,11.79
21.76,4,0,1,99111.95,20.15,260.89,431,-0.47,-0.23,0.81,-93.29,-26.77,223.17,-42.7355,-7.98012,-5.65803,3.32,4.87,11.92
21.79,4,0,1,99106.78,20.15,260.89,432,-0.41,-0.32,0.76,-93.78,-19.76,229.15,-35.8441,-8.49826,-6.13738,3.30,4.86,11.97
21.81,4,0,1,99122.30,20.15,259.58,433,-0.48,-0.41,0.81,-90.85,-14.88,236.46,-31.1365,-8.9409,-6.3727,3.30,4.87,11.52
21.83,4,0,1,99124.89,20.15,259.36,434,-0.50,-0.49,0.79,-87.56,-10.98,243.90,-26.3046,-9.45545,-6.5171,3.30,4.87,11.79
21.85,4,0,1,99128.34,20.15,259.07,435,-0.49,-0.39,0.78,-83.05,-7.56,251.77,-21.3238,-10.0386,-6.53775,3.30,4.87,11.88
21.87,4,0,1,99130.06,20.15,258.92,436,-0.56,-0.38,0.79,-80.00,-3.90,259.57,-16.1917,-10.6816,-6.44074,3.29,4.87,11.92
21.89,4,0,1,99138.69,20.15,258.19,437,-0.66,-0.40,0.84,-75.18,-1.71,267.26,-10.9035,-11.3523,-6.20181,3.30,4.87,11.92
21.91,4,0,1,99143.01,20.15,257.83,438,-0.66,-0.27,0.85,-71.52,-0.18,274.82,-5.44713,-12.032,-5.81633,3.30,4.87,11.88
21.93,4,0,1,99143.01,20.15,257.83,439,-0.58,-0.10,0.81,-70.49,2.26,283.29,0.20626,-12.7114,-5.28998,3.30,4.87,11.91
21.95,4,0,1,99149.91,20.14,257.24,440,-0.53,-0.13,0.76,-66.83,4.45,290.67,6.011435,-13.3686,-4.63616,3.30,4.87,11.79
21.98,4,0,1,99162.85,20.14,256.15,441,-0.56,-0.07,0.81,-64.33,5.91,297.74,14.97536,-14.2395,-3.42557,3.30,4.87,11.62
22.00,4,0,1,99158.53,20.15,256.51,442,-0.67,-0.15,0.84,-60.30,7.07,303.78,21.08817,-14.7218,-2.50433,3.30,4.86,11.94
22.02,4,0,1,99158.53,20.15,256.51,443,-0.73,-0.20,0.81,-56.40,8.29,310.85,27.35854,-15.107,-1.47206,3.30,4.87,11.94
22.04,4,0,1,99161.13,20.15,256.30,444,-0.66,-0.03,0.86,-53.84,8.35,317.38,33.80537,-15.3689,-0.31948,3.30,4.87,11.92
22.06,4,0,1,99167.20,20.14,255.78,445,-0.58,-0.05,0.86,-49.70,8.66,323.96,40.39479,-15.4858,0.906918,3.30,4.87,11.96
22.08,4,0,1,99163.71,20.15,256.08,446,-0.54,0.06,0.84,-48.17,8.11,329.09,47.14367,-15.4346,2.219804,3.30,4.87,11.96
22.10,4,0,1,99172.38,20.14,255.34,447,-0.51,0.08,0.87,-43.54,8.29,330.67,53.93252,-15.2199,3.567333,3.30,4.86,11.99
22.12,4,0,1,99179.23,20.15,254.76,448,-0.45,0.06,0.86,-42.62,8.78,330.43,60.7572,-14.7839,4.820294,3.30,4.87,11.99
22.15,4,0,1,99180.97,20.14,254.62,449,-0.32,0.05,0.88,-39.63,10.24,329.76,71.01947,-13.8383,6.651117,3.30,4.87,11.92
22.17,4,0,1,99199.94,20.15,253.01,450,-0.28,-0.02,0.82,-35.49,11.52,329.27,77.85134,-13.0641,7.799226,3.30,4.87,11.92
22.19,4,0,1,99193.09,20.14,253.59,451,-0.33,0.05,0.92,-33.11,10.85,329.02,84.68319,-12.1572,8.87167,3.30,4.87,11.94
22.22,4,0,1,99196.50,20.14,253.30,452,-0.34,-0.04,0.94,-29.63,12.32,332.38,94.99981,-10.6073,10.33787,3.30,4.87,11.86
22.24,4,0,1,99201.63,20.16,252.87,453,-0.35,-0.01,0.96,-24.82,10.55,335.79,101.9285,-9.42081,11.21569,3.31,4.87,11.89
22.26,4,0,1,99205.12,20.15,252.58,454,-0.39,0.13,0.92,-22.74,7.20,341.34,108.9432,-8.10434,11.98313,3.30,4.87,11.75
22.28,4,0,1,99205.12,20.15,252.58,455,-0.37,0.08,0.92,-20.30,5.43,346.34,116.0358,-6.67259,12.62192,3.30,4.87,11.71
22.30,4,0,1,99206.80,20.16,252.43,456,-0.37,0.15,0.91,-20.67,2.13,350.73,123.1975,-5.13828,13.08334,3.30,4.87,11.76
22.32,4,0,1,99217.14,20.16,251.56,457,-0.32,0.13,0.89,-20.06,0.85,354.39,130.4144,-3.5362,13.3584,3.30,4.87,11.81
22.34,4,0,1,99222.32,20.16,251.12,458,-0.32,0.20,0.87,-21.46,-4.45,358.23,137.6681,-1.86112,13.41861,3.30,4.87,11.86
22.37,4,0,1,99217.14,20.16,251.56,459,-0.28,0.26,0.84,-23.35,-7.07,358.66,148.4906,0.646624,13.08878,3.30,4.87,11.84
22.39,4,0,1,99224.91,20.16,250.90,460,-0.20,0.44,0.84,-27.38,-9.51,356.34,155.627,2.270238,12.60076,3.30,4.87,11.73
22.41,4,0,1,99221.50,20.15,251.19,461,-0.03,0.41,0.85,-34.57,-9.33,350.18,162.6344,3.787192,11.8479,3.30,4.87,11.86
22.43,4,0,1,99227.50,20.16,250.68,462,0.08,0.39,0.90,-39.15,-6.16,341.16,169.4627,5.131184,10.88729,3.30,4.88,11.89
22.45,4,0,1,99240.44,20.16,249.59,463,0.27,0.39,0.90,-45.49,-2.13,329.51,176.0654,6.360784,9.739568,3.30,4.87,11.86
22.47,4,0,1,99232.67,20.16,250.25,464,0.44,0.33,0.89,-48.35,4.57,317.68,-177.555,7.348151,8.457032,3.30,4.87,11.91
22.49,4,0,1,99235.27,20.16,250.03,465,0.54,0.26,0.87,-51.16,13.35,304.39,-171.424,8.061681,7.090553,3.30,4.87,11.88
22.51,4,0,1,99232.67,20.16,250.25,466,0.64,0.11,0.87,-52.26,24.88,291.89,-165.51,8.478028,5.683865,3.30,4.87,11.86
22.54,4,0,1,99243.02,20.16,249.37,467,0.59,-0.06,0.94,-50.85,36.10,280.49,-156.962,8.620584,3.594304,3.30,4.87,11.86
